id,t,px,py,pz,vx,vy,vz,ax,ay,az,planning_time,qp_cost,planning_report,size,id,t,px,py,pz,vx,vy,vz,ax,ay,az,planning_time,qp_cost,planning_report,size,id,t,px,py,pz,vx,vy,vz,ax,ay,az,planning_time,qp_cost,planning_report,size,id,t,px,py,pz,vx,vy,vz,ax,ay,az,planning_time,qp_cost,planning_report,size,id,t,px,py,pz,vx,vy,vz,ax,ay,az,planning_time,qp_cost,planning_report,size,id,t,px,py,pz,vx,vy,vz,ax,ay,az,planning_time,qp_cost,planning_report,size,id,t,px,py,pz,vx,vy,vz,ax,ay,az,planning_time,qp_cost,planning_report,size,id,t,px,py,pz,vx,vy,vz,ax,ay,az,planning_time,qp_cost,planning_report,size,id,t,px,py,pz,vx,vy,vz,ax,ay,az,planning_time,qp_cost,planning_report,size,id,t,px,py,pz,vx,vy,vz,ax,ay,az,planning_time,qp_cost,planning_report,size,id,t,px,py,pz,vx,vy,vz,ax,ay,az,planning_time,qp_cost,planning_report,size,id,t,px,py,pz,vx,vy,vz,ax,ay,az,planning_time,qp_cost,planning_report,size,id,t,px,py,pz,vx,vy,vz,ax,ay,az,planning_time,qp_cost,planning_report,size,id,t,px,py,pz,vx,vy,vz,ax,ay,az,planning_time,qp_cost,planning_report,size,id,t,px,py,pz,vx,vy,vz,ax,ay,az,planning_time,qp_cost,planning_report,size,id,t,px,py,pz,vx,vy,vz,ax,ay,az,planning_time,qp_cost,planning_report,size,id,t,px,py,pz,vx,vy,vz,ax,ay,az,planning_time,qp_cost,planning_report,size,id,t,px,py,pz,vx,vy,vz,ax,ay,az,planning_time,qp_cost,planning_report,size,id,t,px,py,pz,vx,vy,vz,ax,ay,az,planning_time,qp_cost,planning_report,size,id,t,px,py,pz,vx,vy,vz,ax,ay,az,planning_time,qp_cost,planning_report,size,id,t,px,py,pz,vx,vy,vz,ax,ay,az,planning_time,qp_cost,planning_report,size,id,t,px,py,pz,vx,vy,vz,ax,ay,az,planning_time,qp_cost,planning_report,size,id,t,px,py,pz,vx,vy,vz,ax,ay,az,planning_time,qp_cost,planning_report,size,id,t,px,py,pz,vx,vy,vz,ax,ay,az,planning_time,qp_cost,planning_report,size,id,t,px,py,pz,vx,vy,vz,ax,ay,az,planning_time,qp_cost,planning_report,size,id,t,px,py,pz,vx,vy,vz,ax,ay,az,planning_time,qp_cost,planning_report,size,id,t,px,py,pz,vx,vy,vz,ax,ay,az,planning_time,qp_cost,planning_report,size,id,t,px,py,pz,vx,vy,vz,ax,ay,az,planning_time,qp_cost,planning_report,size,id,t,px,py,pz,vx,vy,vz,ax,ay,az,planning_time,qp_cost,planning_report,size,id,t,px,py,pz,vx,vy,vz,ax,ay,az,planning_time,qp_cost,planning_report,size
0,0,-4.13415,-2.97562,0.623488,0,0,0,0,0,0,0.0184224,3.51219,5,0.1,1,0,5.27774,1.64953,0.628848,0,0,0,0,0,0,0.0173585,2.73085,5,0.1,2,0,0.200458,2.97127,0.587505,0,0,0,0,0,0,0.00886519,0.52746,5,0.1,3,0,-5.37127,-2.54981,0.550567,0,0,0,0,0,0,0.00947552,2.62602,5,0.1,4,0,2.77009,-3.30923,0.518693,0,0,0,0,0,0,0.0123714,3.5122,5,0.1,5,0,-0.510381,-0.22781,0.525418,0,0,0,0,0,0,0.0115196,2.66501,5,0.1,6,0,-2.06894,5.01782,0.51522,0,0,0,0,0,0,0.0190896,3.5122,5,0.1,7,0,-2.75217,2.35805,0.550305,0,0,0,0,0,0,0.0108582,0.596264,5,0.1,8,0,-2.8121,4.66245,0.644801,0,0,0,0,0,0,0.0276003,0.948355,5,0.1,9,0,1.95669,-2.55609,0.559181,0,0,0,0,0,0,0.0150091,3.5122,5,0.1,10,0,-1.62318,-5.07522,0.539838,0,0,0,0,0,0,0.0123771,0.729883,5,0.1,11,0,-0.696279,-1.62354,0.674093,0,0,0,0,0,0,0.00942416,0.579384,5,0.1,12,0,2.96755,-5.74256,0.651657,0,0,0,0,0,0,0.0116409,0.752937,5,0.1,13,0,-3.96125,4.23283,0.663727,0,0,0,0,0,0,0.0119401,0.549985,5,0.1,14,0,0.444488,-0.573893,0.684172,0,0,0,0,0,0,0.025342,1.92824,5,0.1,15,0,-3.62398,1.7163,0.624198,0,0,0,0,0,0,0.0117835,3.51219,5,0.1,16,0,0.373618,-5.68817,0.577386,0,0,0,0,0,0,0.0121279,3.42324,5,0.1,17,0,0.98655,-3.25041,0.5152,0,0,0,0,0,0,0.0143031,0.889084,5,0.1,18,0,2.84631,-0.264313,0.541554,0,0,0,0,0,0,0.0120169,3.5122,5,0.1,19,0,2.08098,-3.55173,0.556903,0,0,0,0,0,0,0.0234778,2.39097,5,0.1,20,0,3.55796,1.70411,0.558048,0,0,0,0,0,0,0.0271954,3.5122,5,0.1,21,0,-4.08953,-5.61294,0.594481,0,0,0,0,0,0,0.0342193,0.681534,5,0.1,22,0,0.0422959,1.49083,0.524373,0,0,0,0,0,0,0.0220258,2.16918,5,0.1,23,0,-3.65856,-4.00337,0.594815,0,0,0,0,0,0,0.0267487,3.51219,5,0.1,24,0,-1.71582,-0.170516,0.569947,0,0,0,0,0,0,0.015134,0.628284,5,0.1,25,0,-3.863,2.34016,0.639159,0,0,0,0,0,0,0.0261867,1.06467,5,0.1,26,0,5.48382,0.869823,0.536987,0,0,0,0,0,0,0.016886,3.51219,5,0.1,27,0,-5.3167,-3.4991,0.52097,0,0,0,0,0,0,0.0203641,3.5122,5,0.1,28,0,-3.3978,-2.37636,0.521482,0,0,0,0,0,0,0.0125347,3.5122,5,0.1,29,0,-1.23608,-1.22284,0.538278,0,0,0,0,0,0,0.0220677,3.51226,5,0.1
0,0.1,-4.1321,-2.9752,0.623471,0.0580385,0.0119999,-0.000489689,1.03182,0.213325,-0.00870973,0.0184224,3.51219,5,0.1,1,0.1,5.27678,1.64797,0.628818,-0.0274934,-0.0444371,-0.000854768,-0.488788,-0.79,-0.0151992,0.0173585,2.73085,5,0.1,2,0.1,0.199779,2.97083,0.587518,-0.0192758,-0.0124842,0.000370294,-0.34268,-0.221938,0.00657886,0.00886519,0.52746,5,0.1,3,0.1,-5.36958,-2.54918,0.550619,0.0480443,0.0177745,0.00146488,0.854135,0.316009,0.0260435,0.00947552,2.62602,5,0.1,4,0.1,2.76805,-3.30968,0.518624,-0.0578735,-0.0126284,-0.00196807,-1.02888,-0.224486,-0.0349879,0.0123714,3.5122,5,0.1,5,0.1,-0.510162,-0.226007,0.525496,0.00623455,0.0512022,0.00221031,0.110831,0.910262,0.0392906,0.0115196,2.66501,5,0.1,6,0.1,-2.0672,5.01667,0.515161,0.0494309,-0.0326581,-0.00168001,0.878751,-0.580579,-0.0298657,0.0190896,3.5122,5,0.1,7,0.1,-2.75212,2.35825,0.55114,0.001546,0.00568852,0.0236982,0.0275075,0.101149,0.421304,0.0108582,0.596264,5,0.1,8,0.1,-2.81214,4.66165,0.645537,-0.0011228,-0.0225946,0.0208979,-0.0199676,-0.401676,0.371516,0.0276003,0.948355,5,0.1,9,0.1,1.95465,-2.55567,0.559218,-0.0580847,0.0117388,0.00105053,-1.03262,0.208691,0.0186786,0.0150091,3.5122,5,0.1,10,0.1,-1.62368,-5.07603,0.539901,-0.0141302,-0.0229605,0.00178283,-0.251211,-0.408202,0.031691,0.0123771,0.729883,5,0.1,11,0.1,-0.696961,-1.62404,0.674016,-0.0193723,-0.0141194,-0.00219559,-0.344399,-0.251018,-0.0390299,0.00942416,0.579384,5,0.1,12,0.1,2.96837,-5.74204,0.651603,0.0231873,0.0145957,-0.001531,0.412211,0.259459,-0.0272132,0.0116409,0.752937,5,0.1,13,0.1,-3.96103,4.23248,0.664443,0.00625998,-0.00986233,0.0203371,0.111312,-0.175327,0.361547,0.0119401,0.549985,5,0.1,14,0.1,0.444493,-0.572511,0.684867,0.000163354,0.0392324,0.0197312,0.00290573,0.69746,0.350781,0.025342,1.92824,5,0.1,15,0.1,-3.62191,1.71661,0.624218,0.0586171,0.00874382,0.000564568,1.04208,0.155441,0.0100359,0.0117835,3.51219,5,0.1,16,0.1,0.374011,-5.68615,0.577409,0.0111537,0.0574373,0.000670273,0.19829,1.02106,0.0119172,0.0121279,3.42324,5,0.1,17,0.1,0.98646,-3.24937,0.515132,-0.00256505,0.029647,-0.00193203,-0.0455976,0.527039,-0.0343509,0.0143031,0.889084,5,0.1,18,0.1,2.84424,-0.264571,0.541599,-0.0588004,-0.00732057,0.0012747,-1.04536,-0.130143,0.0226609,0.0120169,3.5122,5,0.1,19,0.1,2.07975,-3.55052,0.556948,-0.034998,0.0341307,0.00127694,-0.622168,0.60676,0.0227056,0.0234778,2.39097,5,0.1,20,0.1,3.55594,1.70466,0.558071,-0.0572365,0.0153722,0.000647642,-1.01756,0.273295,0.0115111,0.0271954,3.5122,5,0.1,21,0.1,-4.08918,-5.6121,0.594487,0.0100628,0.02409,0.000163447,0.178874,0.428289,0.00290945,0.0342193,0.681534,5,0.1,22,0.1,0.041782,1.48927,0.524295,-0.0145888,-0.0441793,-0.00220388,-0.259356,-0.78541,-0.0391826,0.0220258,2.16918,5,0.1,23,0.1,-3.65839,-4.00133,0.595175,0.00484735,0.0581808,0.01021,0.0861883,1.03432,0.181515,0.0267487,3.51219,5,0.1,24,0.1,-1.71576,-0.170181,0.570762,0.00195093,0.00949819,0.0231163,0.034675,0.168856,0.410955,0.015134,0.628284,5,0.1,25,0.1,-3.86304,2.33928,0.639901,-0.00109635,-0.0248976,0.0210651,-0.0195056,-0.442624,0.374492,0.0261867,1.06467,5,0.1,26,0.1,5.4819,0.870655,0.537035,-0.0543356,0.0236302,0.00137845,-0.966012,0.42009,0.0245087,0.016886,3.51219,5,0.1,27,0.1,-5.31466,-3.49915,0.521382,0.0580847,-0.00142343,0.0116973,1.03265,-0.0252873,0.207949,0.0203641,3.5122,5,0.1,28,0.1,-3.39836,-2.37435,0.521421,-0.015679,0.0571307,-0.00171838,-0.278741,1.01565,-0.0305511,0.0125347,3.5122,5,0.1,29,0.1,-1.23427,-1.22383,0.538329,0.0513339,-0.0281828,0.00146441,0.912599,-0.501029,0.0260323,0.0220677,3.51226,5,0.1
0,0.2,-4.12031,-2.97276,0.623371,0.183427,0.0379264,-0.00154674,1.37568,0.284433,-0.0116229,0.0195881,2.92581,5,0.1,1,0.2,5.27119,1.63894,0.628645,-0.0868917,-0.140443,-0.00270158,-0.651598,-1.05333,-0.0202656,0.0175384,2.24053,5,0.1,2,0.2,0.195864,2.96829,0.587593,-0.0609208,-0.0394523,0.00116974,-0.456914,-0.295997,0.00879169,0.00738212,0.432753,5,0.1,3,0.2,-5.35982,-2.54557,0.550916,0.151849,0.0561774,0.00462979,1.13869,0.421286,0.0347197,0.0145507,2.15453,5,0.1,4,0.2,2.7563,-3.31224,0.518224,-0.182915,-0.0399113,-0.00621974,-1.37174,-0.299335,-0.0466406,0.00940212,2.9258,5,0.1,5,0.2,-0.508895,-0.215606,0.525945,0.0197038,0.161824,0.00698566,0.14779,1.21368,0.0523925,0.0106472,2.20029,5,0.1,6,0.2,-2.05715,5.01003,0.51482,0.156224,-0.103211,-0.00531077,1.17171,-0.774145,-0.0397861,0.0187464,2.92579,5,0.1,7,0.2,-2.7518,2.35941,0.555953,0.00488162,0.0179768,0.0748992,0.0367165,0.134826,0.561714,0.0119816,0.489205,5,0.1,8,0.2,-2.81237,4.65706,0.649782,-0.00354648,-0.0714064,0.0660479,-0.0267029,-0.535727,0.495374,0.0272466,0.778072,5,0.1,9,0.2,1.94285,-2.55329,0.559432,-0.183576,0.0371039,0.00332147,-1.37681,0.278115,0.0248849,0.01336,2.9258,5,0.1,10,0.2,-1.62655,-5.0807,0.540263,-0.0446588,-0.0725627,0.00563562,-0.334918,-0.54431,0.0422299,0.0117115,0.59883,5,0.1,11,0.2,-0.700897,-1.62691,0.67357,-0.0612259,-0.044626,-0.00693947,-0.459224,-0.33462,-0.0520647,0.00991069,0.475356,5,0.1,12,0.2,2.97308,-5.73908,0.651292,0.0732839,0.046134,-0.00483692,0.549555,0.345945,-0.036329,0.00829417,0.617751,5,0.1,13,0.2,-3.95976,4.23047,0.668574,0.0197828,-0.0311732,0.0642762,0.148416,-0.233889,0.482053,0.0141095,0.451233,5,0.1,14,0.2,0.444526,-0.564542,0.688875,0.000516325,0.123994,0.0623599,0.0038743,0.929952,0.467718,0.0217058,1.58202,5,0.1,15,0.2,-3.61,1.71839,0.624332,0.185257,0.0276357,0.00178367,1.3895,0.207245,0.013411,0.0142596,2.92579,5,0.1,16,0.2,0.376277,-5.67448,0.577545,0.0352509,0.181532,0.00211746,0.264406,1.36137,0.0159144,0.00993787,2.8086,5,0.1,17,0.2,0.985939,-3.24335,0.51474,-0.00810623,0.0936985,-0.0061065,-0.0607967,0.702739,-0.0457764,0.0106236,0.729447,5,0.1,18,0.2,2.83229,-0.266058,0.541858,-0.185835,-0.023137,0.00402778,-1.39391,-0.173509,0.0302196,0.0141564,2.92578,5,0.1,19,0.2,2.07264,-3.54359,0.557207,-0.110608,0.107872,0.00403672,-0.829577,0.808954,0.0302792,0.0197794,3.17622,5,0.1,20,0.2,3.54431,1.70778,0.558203,-0.180894,0.0485837,0.00204593,-1.35672,0.364423,0.015378,0.0258055,2.92579,5,0.1,21,0.2,-4.08713,-5.6072,0.59452,0.0317931,0.076139,0.00051707,0.238657,0.571012,0.0038743,0.0432886,0.559165,5,0.1,22,0.2,0.0388186,1.4803,0.523847,-0.0461077,-0.13963,-0.00696629,-0.345808,-1.04719,-0.0522435,0.0196967,1.7797,5,0.1,23,0.2,-3.65741,-3.98951,0.597249,0.0153244,0.18388,0.0322685,0.114799,1.37901,0.241995,0.03241,2.9258,5,0.1,24,0.2,-1.71536,-0.168252,0.575457,0.0061661,0.0300191,0.0730574,0.0461936,0.225142,0.547975,0.0152811,0.515474,5,0.1,25,0.2,-3.86326,2.33423,0.64418,-0.00346899,-0.0786841,0.0665754,-0.0258684,-0.590324,0.499368,0.0265959,0.873497,5,0.1,26,0.2,5.47087,0.875455,0.537315,-0.171733,0.0746831,0.0043571,-1.28794,0.560105,0.0326633,0.0182026,2.92596,5,0.1,27,0.2,-5.30286,-3.49944,0.523758,0.18357,-0.00450015,0.0369698,1.37711,-0.0337362,0.277251,0.0226444,2.92577,5,0.1,28,0.2,-3.40154,-2.36275,0.521072,-0.0495553,0.18056,-0.00543147,-0.371695,1.35434,-0.0407398,0.0136942,2.92578,5,0.1,29,0.2,-1.22385,-1.22955,0.538627,0.162241,-0.0890732,0.0046283,1.21683,-0.667989,0.0346899,0.0233374,2.96339,5,0.1
0,0.3,-4.09432,-2.96739,0.623152,0.341644,0.070639,-0.00288282,1.69066,0.349551,-0.0142753,0.0195881,2.92581,5,0.1,1,0.3,5.25888,1.61905,0.628262,-0.161639,-0.261272,-0.00502635,-0.797391,-1.28894,-0.0247955,0.0175384,2.24053,5,0.1,2,0.3,0.187235,2.9627,0.587759,-0.113334,-0.0734035,0.0021778,-0.55911,-0.362173,0.0107512,0.00738212,0.432753,5,0.1,3,0.3,-5.33832,-2.53762,0.551572,0.282475,0.104505,0.00861278,1.39347,0.515535,0.0424944,0.0145507,2.15453,5,0.1,4,0.3,2.73038,-3.3179,0.517343,-0.34068,-0.0743367,-0.0115841,-1.68589,-0.36788,-0.057321,0.00940212,2.9258,5,0.1,5,0.3,-0.506105,-0.193049,0.526934,0.0366564,0.290773,0.0129956,0.180844,1.30289,0.0641085,0.0106472,2.20029,5,0.1,6,0.3,-2.03502,4.99541,0.514068,0.29098,-0.192244,-0.00988776,1.44,-0.951409,-0.0489168,0.0187464,2.92579,5,0.1,7,0.3,-2.75111,2.36195,0.566561,0.00909157,0.033443,0.139335,0.0448972,0.165001,0.687376,0.0119816,0.489205,5,0.1,8,0.3,-2.81287,4.64695,0.659136,-0.00660717,-0.132854,0.122872,-0.0326335,-0.655413,0.606168,0.0272466,0.778072,5,0.1,9,0.3,1.91683,-2.54803,0.559902,-0.341922,0.0690959,0.00618426,-1.69208,0.341892,0.0305958,0.01336,2.9258,5,0.1,10,0.3,-1.63287,-5.09097,0.541061,-0.0830784,-0.134997,0.0104811,-0.409856,-0.666022,0.0516921,0.0117115,0.59883,5,0.1,11,0.3,-0.709568,-1.63323,0.672587,-0.113903,-0.0830129,-0.012911,-0.561926,-0.409514,-0.0636987,0.00991069,0.475356,5,0.1,12,0.3,2.98346,-5.73255,0.650607,0.136327,0.085818,-0.00900263,0.672504,0.423342,-0.0444315,0.00829417,0.617751,5,0.1,13,0.3,-3.95696,4.22606,0.677677,0.0368066,-0.0579983,0.119573,0.181586,-0.286162,0.589885,0.0141095,0.451233,5,0.1,14,0.3,0.4446,-0.546981,0.697707,0.000960659,0.23067,0.116012,0.00473857,1.13796,0.572327,0.0217058,1.58202,5,0.1,15,0.3,-3.58375,1.7223,0.624585,0.34506,0.0514718,0.00332491,1.70763,0.254713,0.0164621,0.0142596,2.92579,5,0.1,16,0.3,0.381269,-5.64877,0.577846,0.0655805,0.337698,0.0039421,0.323534,1.66595,0.0194535,0.00993787,2.8086,5,0.1,17,0.3,0.984791,-3.23008,0.513875,-0.0150803,0.17431,-0.0113584,-0.0743903,0.859916,-0.0560284,0.0106236,0.729447,5,0.1,18,0.3,2.80596,-0.269337,0.542429,-0.346144,-0.0430928,0.00750301,-1.71302,-0.213249,0.0371374,0.0141564,2.92578,5,0.1,19,0.3,2.05813,-3.52742,0.557758,-0.172986,0.226013,0.00692802,-0.432298,1.44047,0.0266992,0.0197794,3.17622,5,0.1,20,0.3,3.51868,1.71466,0.558493,-0.336929,0.0904942,0.00381367,-1.66737,0.447832,0.0188835,0.0258055,2.92579,5,0.1,21,0.3,-4.08263,-5.59642,0.594594,0.0591643,0.141641,0.000961684,0.291973,0.698745,0.00473857,0.0432886,0.559165,5,0.1,22,0.3,0.0322884,1.46052,0.522861,-0.0857757,-0.259755,-0.0129592,-0.423157,-1.28144,-0.0639334,0.0196967,1.7797,5,0.1,23,0.3,-3.65524,-3.96345,0.601821,0.0285313,0.342483,0.0601008,0.141144,1.69481,0.297416,0.03241,2.9258,5,0.1,24,0.3,-1.71449,-0.164,0.585805,0.0114666,0.0558454,0.135915,0.0565574,0.275501,0.670522,0.0152811,0.515474,5,0.1,25,0.3,-3.86375,2.32308,0.653609,-0.00644065,-0.146395,0.123857,-0.0317246,-0.722259,0.611037,0.0265959,0.873497,5,0.1,26,0.3,5.44651,0.885998,0.53793,-0.320347,0.137949,0.00804672,-1.59156,0.667881,0.0389554,0.0182026,2.92596,5,0.1,27,0.3,-5.27684,-3.50008,0.528997,0.34194,-0.00838004,0.0688569,1.6923,-0.0414699,0.340749,0.0226444,2.92577,5,0.1,28,0.3,-3.40856,-2.33716,0.520303,-0.0923026,0.336317,-0.0101169,-0.456795,1.66437,-0.0500642,0.0136942,2.92578,5,0.1,29,0.3,-1.20112,-1.24171,0.539243,0.294599,-0.152524,0.0074923,1.36055,-0.583179,0.02262,0.0233374,2.96339,5,0.1
0,0.4,-4.05184,-2.95861,0.622793,0.504553,0.10432,-0.00425726,1.49465,0.30899,-0.0126362,0.0409558,2.51202,5,0.1,1,0.4,5.2388,1.58659,0.627638,-0.238383,-0.385317,-0.00741184,-0.703573,-1.13714,-0.0219047,0.015393,1.88788,5,0.1,2,0.4,0.173156,2.95358,0.588029,-0.167142,-0.108254,0.00321269,-0.493258,-0.3196,0.00944734,0.0110744,0.342397,5,0.1,3,0.4,-5.30322,-2.52463,0.552642,0.416589,0.15412,0.0127017,1.22929,0.454903,0.0374615,0.00926964,1.7047,5,0.1,4,0.4,2.68802,-3.32714,0.515902,-0.503117,-0.10978,-0.017108,-1.49047,-0.325203,-0.0506639,0.0114514,2.48533,5,0.1,5,0.4,-0.501551,-0.157732,0.528548,0.0540599,0.411639,0.0191659,0.159547,1.0692,0.056535,0.0107124,1.60692,5,0.1,6,0.4,-1.99884,4.9715,0.512838,0.429717,-0.283909,-0.0146016,1.27327,-0.841141,-0.043273,0.0171056,2.51018,5,0.1,7,0.4,-2.74998,2.36611,0.583871,0.0134051,0.0493169,0.205487,0.0396967,0.145674,0.606418,0.0112447,0.387065,5,0.1,8,0.4,-2.81369,4.63045,0.6744,-0.00974536,-0.195944,0.18121,-0.0287294,-0.577927,0.534743,0.0285545,0.615615,5,0.1,9,0.4,1.87432,-2.53944,0.560671,-0.504947,0.102037,0.00913143,-1.4962,0.302315,0.0270903,0.0128309,2.51212,5,0.1,10,0.4,-1.64319,-5.10775,0.542363,-0.12252,-0.199091,0.015457,-0.361621,-0.587702,0.0455976,0.0114309,0.473798,5,0.1,11,0.4,-0.723718,-1.64354,0.670983,-0.167982,-0.122425,-0.0190422,-0.495732,-0.361264,-0.0561774,0.00943211,0.376107,5,0.1,12,0.4,3.00039,-5.72189,0.649488,0.201052,0.126565,-0.0132769,0.593305,0.373602,-0.0392199,0.00849847,0.488772,5,0.1,13,0.4,-3.95238,4.21885,0.692532,0.0542879,-0.0855327,0.176343,0.160098,-0.252485,0.520438,0.0134883,0.357019,5,0.1,14,0.4,0.444719,-0.518325,0.712119,0.0014171,0.340186,0.171091,0.00417233,1.00394,0.504941,0.0225717,1.25171,5,0.1,15,0.4,-3.54085,1.7287,0.624999,0.50959,0.0760108,0.00491142,1.50967,0.225246,0.0145435,0.0137234,2.51349,5,0.1,16,0.4,0.389416,-5.60682,0.578335,0.0967167,0.498021,0.00581443,0.285432,1.46985,0.0171363,0.00979982,2.2222,5,0.1,17,0.4,0.982917,-3.20842,0.512464,-0.02224,0.257069,-0.0167504,-0.0656545,0.758648,-0.0494421,0.0103062,0.577453,5,0.1,18,0.4,2.76292,-0.274694,0.543362,-0.511187,-0.0636384,0.0110805,-1.51455,-0.188574,0.0328422,0.0136912,2.51404,5,0.1,19,0.4,2.03923,-3.49734,0.558573,-0.199848,0.376034,0.00923723,-0.118613,1.47414,0.0188649,0.0194738,2.68523,5,0.1,20,0.4,3.47679,1.72591,0.558967,-0.497574,0.133646,0.00563115,-1.47438,0.395894,0.0167191,0.0230874,2.51064,5,0.1,21,0.4,-4.07528,-5.57882,0.594713,0.0872612,0.20889,0.00141859,0.257254,0.616312,0.00417233,0.0337907,0.465419,5,0.1,22,0.4,0.0216326,1.42825,0.521251,-0.1265,-0.383082,-0.0191107,-0.373324,-1.13046,-0.0564158,0.0232515,1.12693,5,0.1,23,0.4,-3.65169,-3.92087,0.609293,0.0421286,0.505775,0.0887558,0.124931,1.49858,0.262976,0.0306338,2.51235,5,0.1,24,0.4,-1.71306,-0.157063,0.602689,0.0169098,0.0823595,0.200444,0.0498891,0.243053,0.591546,0.0119879,0.407848,5,0.1,25,0.4,-3.86455,2.3049,0.668996,-0.00949502,-0.2159,0.182661,-0.0280142,-0.637293,0.539064,0.0273235,0.691114,5,0.1,26,0.4,5.40665,0.903057,0.538925,-0.473905,0.201783,0.0117704,-1.4112,0.581294,0.033915,0.019518,2.52823,5,0.1,27,0.4,-5.23433,-3.50112,0.537558,0.504982,-0.0123799,0.101687,1.49608,-0.036478,0.301272,0.0189376,2.51209,5,0.1,28,0.4,-3.42004,-2.29535,0.519045,-0.13631,0.496674,-0.0149399,-0.404,1.47164,-0.0442863,0.0142122,2.51051,5,0.1,29,0.4,-1.1651,-1.25961,0.540086,0.422287,-0.202727,0.00916868,1.14244,-0.408769,0.0109971,0.0206879,2.61541,5,0.1
0,0.5,-3.99384,-2.94659,0.622303,0.654326,0.136118,-0.00555692,1.42926,0.3106,-0.0126921,0.0409558,2.51202,5,0.1,1,0.5,5.21137,1.54328,0.626854,-0.310037,-0.471963,-0.00767633,-0.693917,-0.60302,0.0133514,0.015393,1.88788,5,0.1,2,0.5,0.15393,2.94113,0.588399,-0.217188,-0.140678,0.00417186,-0.48311,-0.312969,0.0092648,0.0110744,0.342397,5,0.1,3,0.5,-5.25531,-2.50691,0.554103,0.541317,0.200273,0.0165031,1.2041,0.44553,0.0367053,0.00926964,1.7047,5,0.1,4,0.5,2.63042,-3.33998,0.51396,-0.645997,-0.148684,-0.0214926,-1.31156,-0.423595,-0.0361837,0.0114514,2.48533,5,0.1,5,0.5,-0.495332,-0.112468,0.530753,0.0702474,0.482205,0.0249024,0.156259,0.381334,0.0553839,0.0107124,1.60692,5,0.1,6,0.5,-1.94932,4.93879,0.511187,0.560739,-0.370466,-0.0181672,1.27979,-0.845462,-0.0277199,0.0171056,2.51018,5,0.1,7,0.5,-2.74844,2.37178,0.607507,0.0174295,0.0640947,0.267015,0.0388175,0.142619,0.593949,0.0112447,0.387065,5,0.1,8,0.5,-2.81481,4.60791,0.695244,-0.01266,-0.254586,0.235466,-0.0281334,-0.566155,0.52375,0.0285545,0.615615,5,0.1,9,0.5,1.81628,-2.52768,0.561723,-0.654759,0.133147,0.0119185,-1.4286,0.303909,0.027217,0.0128309,2.51212,5,0.1,10,0.5,-1.65728,-5.13065,0.544141,-0.15921,-0.258714,0.020084,-0.354178,-0.575542,0.0446737,0.0114309,0.473798,5,0.1,11,0.5,-0.74304,-1.65762,0.668792,-0.218279,-0.15908,-0.0247419,-0.485528,-0.353865,-0.0550225,0.00943211,0.376107,5,0.1,12,0.5,3.02352,-5.70733,0.647961,0.26125,0.164468,-0.0172552,0.581115,0.365883,-0.0383928,0.00849847,0.488772,5,0.1,13,0.5,-3.94614,4.20902,0.712816,0.0705328,-0.111148,0.229147,0.156835,-0.24724,0.509724,0.0134883,0.357019,5,0.1,14,0.5,0.444882,-0.479195,0.731799,0.00184057,0.442046,0.222321,0.00408664,0.983285,0.494547,0.0225717,1.25171,5,0.1,15,0.5,-3.48232,1.73746,0.625565,0.65957,0.0991886,0.00640796,1.4201,0.226401,0.0146143,0.0137234,2.51349,5,0.1,16,0.5,0.400541,-5.54954,0.579004,0.125676,0.647149,0.00755331,0.279555,1.4396,0.0167899,0.00979982,2.2222,5,0.1,17,0.5,0.980359,-3.17885,0.51059,-0.0289008,0.334041,-0.0202786,-0.0642911,0.743017,-0.0219643,0.0103062,0.577453,5,0.1,18,0.5,2.70422,-0.282028,0.544639,-0.661241,-0.0830431,0.0144596,-1.41719,-0.189539,0.0330023,0.0136912,2.51404,5,0.1,19,0.5,2.01898,-3.45191,0.559587,-0.202056,0.534945,0.0109961,0.065282,1.61514,0.0155941,0.0194738,2.68523,5,0.1,20,0.5,3.41953,1.74131,0.559616,-0.647092,0.174385,0.00735074,-1.44204,0.397958,0.0167862,0.0230874,2.51064,5,0.1,21,0.5,-4.06524,-5.55525,0.594876,0.113366,0.258555,0.00184216,0.252038,0.374943,0.00409037,0.0337907,0.465419,5,0.1,22,0.5,0.00708186,1.38435,0.519052,-0.164377,-0.493335,-0.0248345,-0.365643,-1.02821,-0.0552461,0.0232515,1.12693,5,0.1,23,0.5,-3.64683,-3.86274,0.619521,0.0549838,0.655616,0.115817,0.125557,1.4271,0.264328,0.0306338,2.51235,5,0.1,24,0.5,-1.71112,-0.147589,0.625745,0.0219721,0.10702,0.260462,0.0488758,0.238054,0.579368,0.0119879,0.407848,5,0.1,25,0.5,-3.86564,2.28006,0.690007,-0.0123389,-0.280555,0.237354,-0.0274479,-0.62409,0.52797,0.0273235,0.691114,5,0.1,26,0.5,5.352,0.925812,0.540249,-0.619163,0.249876,0.0144649,-1.41928,0.375621,0.0199303,0.019518,2.52823,5,0.1,27,0.5,-5.17629,-3.50255,0.549276,0.654782,-0.0161383,0.132689,1.42848,-0.0367314,0.302829,0.0189376,2.51209,5,0.1,28,0.5,-3.43575,-2.23818,0.517323,-0.177879,0.646151,-0.0194967,-0.406027,1.44368,-0.0445023,0.0142122,2.51051,5,0.1,29,0.5,-1.11681,-1.28181,0.541048,0.544937,-0.239717,0.00997009,1.23725,-0.317924,0.00495091,0.0206879,2.61541,5,0.1
0,0.6,-3.92185,-2.93153,0.621688,0.778419,0.163651,-0.00668168,1.00458,0.228405,-0.00929832,0.0168658,2.31498,5,0.1,1,0.6,5.17716,1.4939,0.626189,-0.371087,-0.507632,-0.00532866,-0.50211,-0.120282,0.0309646,0.0182847,1.72345,5,0.1,2,0.6,0.129978,2.92562,0.588859,-0.259583,-0.168139,0.00498444,-0.34754,-0.225067,0.00667572,0.00835399,0.254903,5,0.1,3,0.6,-5.19561,-2.48482,0.555923,0.646973,0.239372,0.0197232,0.866413,0.320435,0.0264347,0.0100212,1.26913,5,0.1,4,0.6,2.55993,-3.35693,0.51166,-0.756109,-0.189412,-0.0242144,-0.852942,-0.369191,-0.0178218,0.0138465,1.90962,5,0.1,5,0.6,-0.487585,-0.0632127,0.533499,0.0839598,0.49498,0.0297621,0.112399,-0.0942999,0.0398457,0.00979606,1.08936,5,0.1,6,0.6,-1.88729,4.89781,0.509259,0.67417,-0.445402,-0.0201061,0.941098,-0.621796,-0.0109375,0.014447,2.22028,5,0.1,7,0.6,-2.74651,2.37885,0.636954,0.0208378,0.0766098,0.319137,0.0277758,0.102639,0.427276,0.0129106,0.28816,5,0.1,8,0.6,-2.81621,4.57983,0.721212,-0.0151277,-0.304258,0.281428,-0.0202656,-0.407457,0.376761,0.0274164,0.45832,5,0.1,9,0.6,1.74425,-2.51296,0.563042,-0.778723,0.160086,0.0143304,-1.00267,0.223517,0.0200272,0.0141832,2.31963,5,0.1,10,0.6,-1.67484,-5.15918,0.546356,-0.190291,-0.309229,0.0240043,-0.25475,-0.413656,0.0321567,0.00828879,0.352721,5,0.1,11,0.6,-0.767113,-1.67517,0.666064,-0.260887,-0.190133,-0.0295699,-0.349283,-0.254571,-0.0396073,0.0122143,0.280004,5,0.1,12,0.6,3.05233,-5.68919,0.646058,0.312245,0.196576,-0.0206232,0.418186,0.263214,-0.027597,0.00906288,0.36388,5,0.1,13,0.6,-3.93836,4.19676,0.738087,0.0842988,-0.132847,0.273877,0.112772,-0.17786,0.366658,0.012483,0.26579,5,0.1,14,0.6,0.445085,-0.430445,0.756317,0.00219941,0.528334,0.265719,0.00295043,0.707344,0.35578,0.0272274,0.931871,5,0.1,15,0.6,-3.40987,1.74843,0.626273,0.781995,0.119254,0.00770241,0.982404,0.166535,0.0107586,0.0136736,2.32418,5,0.1,16,0.6,0.414401,-5.47817,0.579837,0.150208,0.773489,0.00902563,0.201106,1.03521,0.0120997,0.0117961,1.70191,5,0.1,17,0.6,0.977172,-3.14201,0.508492,-0.0345439,0.39925,-0.0213131,-0.0462234,0.534415,0.000447035,0.0118794,0.43045,5,0.1,18,0.6,2.63163,-0.291214,0.546238,-0.783145,-0.0998423,0.0173852,-0.975132,-0.139385,0.0242591,0.0160939,2.32716,5,0.1,19,0.6,1.99934,-3.39071,0.560755,-0.188544,0.683755,0.0122383,0.196695,1.29664,0.00876188,0.019869,2.38858,5,0.1,20,0.6,3.34816,1.7606,0.560429,-0.773501,0.209656,0.00883788,-1.03498,0.292718,0.0123382,0.0262791,2.30744,5,0.1,21,0.6,-4.05274,-5.52793,0.595079,0.135493,0.28373,0.0022009,0.181198,0.129223,0.00295043,0.0323171,0.428055,5,0.1,22,0.6,-0.0110462,1.33035,0.516314,-0.196464,-0.580898,-0.0296831,-0.263035,-0.691116,-0.0397265,0.0208286,0.82171,5,0.1,23,0.6,-3.64075,-3.79064,0.632333,0.0661075,0.779307,0.139247,0.0925064,0.998974,0.194371,0.0317988,2.31718,5,0.1,24,0.6,-1.70869,-0.135787,0.65447,0.0262618,0.12791,0.311305,0.0352263,0.171252,0.416785,0.0119046,0.303633,5,0.1,25,0.6,-3.86701,2.24912,0.716183,-0.0147521,-0.335318,0.283685,-0.0196695,-0.448942,0.379801,0.0250818,0.677575,5,0.1,26,0.6,5.28348,0.952306,0.541772,-0.74501,0.276245,0.0157624,-1.04475,0.150144,0.00613928,0.017715,2.28747,5,0.1,27,0.6,-5.10425,-3.50433,0.563954,0.778735,-0.0193954,0.15953,1.00255,-0.0270605,0.222713,0.0202411,2.31567,5,0.1,28,0.6,-3.45542,-2.16689,0.515167,-0.213861,0.772852,-0.023441,-0.298619,1.03915,-0.0327229,0.0135455,2.30143,5,0.1,29,0.6,-1.05647,-1.30714,0.542059,0.657141,-0.264168,0.0101507,0.95427,-0.162661,-0.0013113,0.0200463,2.34871,5,0.1
0,0.7,-3.84003,-2.91401,0.620973,0.847911,0.186576,-0.00761524,0.405908,0.215635,-0.00878423,0.0168658,2.31498,5,0.1,1,0.7,5.13833,1.4434,0.625912,-0.397903,-0.494472,0.000609457,-0.0543296,0.352815,0.0807047,0.0182847,1.72345,5,0.1,2,0.7,0.102312,2.9077,0.58939,-0.292948,-0.189745,0.00562537,-0.300689,-0.194699,0.0057742,0.00835399,0.254903,5,0.1,3,0.7,-5.12665,-2.45931,0.558025,0.730151,0.270135,0.0222608,0.749588,0.277251,0.0228658,0.0100212,1.26913,5,0.1,4,0.7,2.48054,-3.37758,0.5092,-0.826145,-0.221943,-0.0245103,-0.526622,-0.271276,0.0101961,0.0138465,1.90962,5,0.1,5,0.7,-0.478637,-0.0150351,0.536671,0.0947507,0.461934,0.0335876,0.0972468,-0.495534,0.0344738,0.00979606,1.08936,5,0.1,6,0.7,-1.81519,4.85012,0.507235,0.766271,-0.507817,-0.0200148,0.846311,-0.587195,0.0113286,0.014447,2.22028,5,0.1,7,0.7,-2.74429,2.38702,0.670967,0.0235051,0.0864614,0.360157,0.0240505,0.0887662,0.369679,0.0129106,0.28816,5,0.1,8,0.7,-2.81782,4.5474,0.751206,-0.0170726,-0.343373,0.317599,-0.0175387,-0.352502,0.325982,0.0274164,0.45832,5,0.1,9,0.7,1.66241,-2.496,0.564576,-0.848017,0.17718,0.0163399,-0.404105,0.116095,0.0188947,0.0141832,2.31963,5,0.1,10,0.7,-1.69512,-5.19213,0.548914,-0.214748,-0.348946,0.0270914,-0.220411,-0.357956,0.0278205,0.00828879,0.352721,5,0.1,11,0.7,-0.794918,-1.69543,0.662912,-0.294419,-0.214573,-0.0333718,-0.302199,-0.220269,-0.0342615,0.0122143,0.280004,5,0.1,12,0.7,3.08561,-5.66824,0.64386,0.352391,0.221843,-0.0232724,0.3618,0.22772,-0.0238679,0.00906288,0.36388,5,0.1,13,0.7,-3.92938,4.1826,0.767276,0.0951272,-0.149919,0.309078,0.0975877,-0.15384,0.317231,0.012483,0.26579,5,0.1,14,0.7,0.445319,-0.374135,0.784637,0.00248263,0.596242,0.299875,0.00255182,0.611994,0.307806,0.0272274,0.931871,5,0.1,15,0.7,-3.32782,1.7612,0.627098,0.849154,0.135968,0.00878181,0.384629,0.157207,0.0101551,0.0136736,2.32418,5,0.1,16,0.7,0.43041,-5.39668,0.580799,0.169515,0.846122,0.0101869,0.17399,0.435233,0.0104643,0.0117961,1.70191,5,0.1,17,0.7,0.97349,-3.09946,0.506401,-0.0389816,0.450557,-0.0201629,-0.0399947,0.462383,0.0209846,0.0118794,0.43045,5,0.1,18,0.7,2.54949,-0.301904,0.5481,-0.84955,-0.11383,0.0198198,-0.377819,-0.131553,0.0228956,0.0160939,2.32716,5,0.1,19,0.7,1.98155,-3.31656,0.562038,-0.166457,0.791551,0.0135415,0.241302,0.838518,0.0155605,0.019869,2.38858,5,0.1,20,0.7,3.26667,1.78297,0.561376,-0.846211,0.236712,0.0100823,-0.435188,0.235036,0.011757,0.0262791,2.30744,5,0.1,21,0.7,-4.0383,-5.49947,0.595314,0.152894,0.280248,0.0024843,0.15685,-0.178546,0.00255182,0.0323171,0.428055,5,0.1,22,0.7,-0.0319851,1.26893,0.513216,-0.221716,-0.645278,-0.0316232,-0.227575,-0.560209,-0.00106171,0.0208286,0.82171,5,0.1,23,0.7,-3.63367,-3.70876,0.647242,0.0753887,0.848217,0.158756,0.0872612,0.400648,0.183512,0.0317988,2.31718,5,0.1,24,0.7,-1.70589,-0.122154,0.687648,0.0296433,0.144351,0.351317,0.0304729,0.148166,0.360593,0.0119046,0.303633,5,0.1,25,0.7,-3.86858,2.21323,0.746418,-0.0166431,-0.382861,0.320147,-0.0170469,-0.46739,0.328593,0.0250818,0.677575,5,0.1,26,0.7,5.20452,0.980845,0.543385,-0.826301,0.295534,0.0165392,-0.572771,0.210751,0.0082776,0.017715,2.28747,5,0.1,27,0.7,-5.02242,-3.50641,0.581035,0.848019,-0.0221137,0.181884,0.40406,-0.0255853,0.210263,0.0202411,2.31567,5,0.1,28,0.7,-3.47832,-2.08545,0.512696,-0.243832,0.84598,-0.0256099,-0.281885,0.439025,-0.0110641,0.0135455,2.30143,5,0.1,29,0.7,-0.985923,-1.33482,0.543104,0.752875,-0.292917,0.0110597,0.900786,-0.368193,0.0167973,0.0200463,2.34871,5,0.1
0,0.8,-3.754,-2.89439,0.620172,0.866026,0.204331,-0.00833869,0,0.129461,-0.00524521,0.0214775,2.23598,5,0.1,1,0.8,5.09887,1.39629,0.62641,-0.385809,-0.442773,0.0095576,0.277519,0.654757,0.0928044,0.00973995,0.738277,5,0.1,2,0.8,0.0717191,2.88788,0.589977,-0.316523,-0.20501,0.00607967,-0.157897,-0.102282,0.00301003,0.0139461,0.179974,5,0.1,3,0.8,-5.0504,-2.4311,0.56035,0.788915,0.291878,0.0240549,0.393867,0.145435,0.0119805,0.0135387,0.896076,5,0.1,4,0.8,2.39594,-3.4009,0.506834,-0.859261,-0.242031,-0.0224933,-0.135303,-0.124335,0.0286996,0.00883031,1.4464,5,0.1,5,0.8,-0.468742,0.0284694,0.540179,0.102375,0.407161,0.0362903,0.0510812,-0.558124,0.0181198,0.00951779,1.02152,5,0.1,6,0.8,-1.73485,4.79672,0.505317,0.834355,-0.556171,-0.0181049,0.479102,-0.352621,0.0256002,0.0160621,1.82772,5,0.1,7,0.8,-2.74184,2.39605,0.708579,0.0253856,0.0934184,0.389141,0.0127554,0.04673,0.194132,0.0138903,0.203457,5,0.1,8,0.8,-2.81961,4.51155,0.784373,-0.0184476,-0.371015,0.343157,-0.00917912,-0.185013,0.171155,0.0229954,0.451518,5,0.1,9,0.8,1.57637,-2.4779,0.566294,-0.866026,0.183022,0.0178948,0,0,0.0113547,0.0123867,1.27084,5,0.1,10,0.8,-1.71755,-5.22857,0.551744,-0.232029,-0.377011,0.0292733,-0.115752,-0.187874,0.0146031,0.00875108,0.249048,5,0.1,11,0.8,-0.825665,-1.71784,0.659427,-0.318111,-0.231841,-0.0360578,-0.158697,-0.115752,-0.0179708,0.0132631,0.197699,5,0.1,12,0.8,3.12241,-5.64507,0.64143,0.380754,0.239706,-0.0251442,0.19002,0.119448,-0.0124872,0.0133803,0.256914,5,0.1,13,0.8,-3.91944,4.16694,0.799554,0.102782,-0.161982,0.33395,0.05126,-0.0808239,0.166595,0.0119142,0.187662,5,0.1,14,0.8,0.445579,-0.311869,0.815954,0.00268295,0.644224,0.324008,0.0013262,0.321357,0.161618,0.0236835,0.662664,5,0.1,15,0.8,-3.24173,1.7755,0.628021,0.866026,0.148913,0.00961721,0,0.0944138,0.00610948,0.0109688,2.25481,5,0.1,16,0.8,0.448113,-5.31071,0.581863,0.183156,0.866032,0.0110075,0.091359,-0.000238419,0.00548363,0.0110435,1.25336,5,0.1,17,0.8,0.96942,-3.05241,0.504512,-0.0421181,0.486815,-0.0174046,-0.0209808,0.24271,0.032872,0.011691,0.304627,5,0.1,18,0.8,2.4634,-0.313873,0.550184,-0.866026,-0.12466,0.021705,0,-0.0789613,0.0137389,0.0131477,2.26006,5,0.1,19,0.8,1.96616,-3.23407,0.56347,-0.140992,0.849676,0.0150457,0.264704,0.326991,0.013262,0.0213703,1.27224,5,0.1,20,0.8,3.18069,1.80763,0.562437,-0.866026,0.254449,0.0110537,0.000119209,0.110805,0.00718236,0.0248932,2.22833,5,0.1,21,0.8,-4.02234,-5.47271,0.595573,0.165188,0.251794,0.0026837,0.0824928,-0.373363,0.00137091,0.0317693,0.242652,5,0.1,22,0.8,-0.0551393,1.20206,0.510099,-0.239559,-0.686902,-0.0302687,-0.119505,-0.248075,0.0263751,0.0211502,1.51043,5,0.1,23,0.8,-3.62574,-3.62271,0.663935,0.0825703,0.866026,0.173868,0.0524521,0,0.110149,0.0326378,2.24566,5,0.1,24,0.8,-1.7028,-0.10708,0.724337,0.0320315,0.155967,0.379589,0.0160336,0.0778064,0.189334,0.0125987,0.21438,5,0.1,25,0.8,-3.87032,2.1728,0.779851,-0.0179827,-0.422913,0.34591,-0.0089407,-0.309348,0.172555,0.0249353,0.493863,5,0.1,26,0.8,5.11981,1.01138,0.545076,-0.860131,0.314093,0.0172243,-0.117779,0.142336,0.00455976,0.0149905,2.19524,5,0.1,27,0.8,-4.93637,-3.50874,0.60016,0.866032,-0.0242233,0.199197,-0.000238419,-0.0152588,0.126272,0.0209428,2.24117,5,0.1,28,0.8,-3.50396,-1.99948,0.510112,-0.267041,0.866026,-0.0257432,-0.169277,-5.96046e-05,0.00786781,0.0119379,2.2181,5,0.1,29,0.8,-0.906615,-1.36599,0.544306,0.82739,-0.330111,0.013034,0.550121,-0.342965,0.020653,0.020102,2.20416,5,0.1
0,0.9,-3.66739,-2.87316,0.619311,0.866026,0.221093,-0.00887401,0,0.184521,-0.00491738,0.0214775,2.23598,5,0.1,1,0.9,5.06213,1.3565,0.62793,-0.345039,-0.342867,0.0215925,0.516146,1.26391,0.138305,0.00973995,0.738277,5,0.1,2,0.9,0.0393137,2.86689,0.5906,-0.330831,-0.214277,0.00635283,-0.113101,-0.0732243,0.00215694,0.0139461,0.179974,5,0.1,3,0.9,-4.96963,-2.40122,0.562812,0.824602,0.305058,0.0251409,0.282109,0.104204,0.00858307,0.0135387,0.896076,5,0.1,4,0.9,2.3096,-3.42564,0.50475,-0.865439,-0.251777,-0.0190163,-0.0103712,-0.0623167,0.0394881,0.00883031,1.4464,5,0.1,5,0.9,-0.458261,0.06649,0.543894,0.107003,0.354066,0.037932,0.0365861,-0.509016,0.0129789,0.00951779,1.02152,5,0.1,6,0.9,-1.64973,4.73932,0.50365,0.862064,-0.591066,-0.015105,0.115618,-0.311255,0.0333302,0.0160621,1.82772,5,0.1,7,0.9,-2.73924,2.40561,0.748419,0.0265397,0.0976503,0.406732,0.00911951,0.0334382,0.139061,0.0138903,0.203457,5,0.1,8,0.9,-2.82149,4.4734,0.819505,-0.0192795,-0.392227,0.358667,-0.00657141,-0.211537,0.122603,0.0229954,0.451518,5,0.1,9,0.9,1.48977,-2.45988,0.568141,-0.86572,0.174589,0.019019,0.0122264,-0.157654,0.0100322,0.0123867,1.27084,5,0.1,10,0.9,-1.74131,-5.26717,0.554741,-0.242518,-0.394038,0.0305967,-0.0829026,-0.134617,0.0104606,0.00875108,0.249048,5,0.1,11,0.9,-0.858233,-1.74157,0.655736,-0.332492,-0.24233,-0.0376861,-0.11367,-0.0829175,-0.0128709,0.0132631,0.197699,5,0.1,12,0.9,3.16139,-5.62053,0.638856,0.397972,0.250531,-0.0262759,0.136092,0.0855625,-0.00894442,0.0133803,0.256914,5,0.1,13,0.9,-3.90892,4.15036,0.833743,0.107428,-0.169305,0.349046,0.0367314,-0.0578463,0.119328,0.0119142,0.187662,5,0.1,14,0.9,0.445853,-0.246119,0.849126,0.00280314,0.667519,0.338653,0.000951812,0.126634,0.115763,0.0236835,0.662664,5,0.1,15,0.9,-3.15513,1.79088,0.629015,0.866026,0.158671,0.0102481,0,0.0907108,0.00586361,0.0109688,2.25481,5,0.1,16,0.9,0.466864,-5.22412,0.58299,0.191435,0.865696,0.0115043,0.0654384,-0.0130832,0.00391901,0.0110435,1.25336,5,0.1,17,0.9,0.965108,-3.00257,0.502947,-0.0440196,0.508809,-0.0138273,-0.0150315,0.173867,0.0376143,0.011691,0.304627,5,0.1,18,0.9,2.3768,-0.326749,0.552425,-0.866026,-0.132797,0.0231209,0,-0.0754315,0.0131242,0.0131477,2.26006,5,0.1,19,0.9,1.95338,-3.1481,0.565047,-0.114647,0.864809,0.0165256,0.259906,0.0330806,0.014931,0.0213703,1.27224,5,0.1,20,0.9,3.09409,1.83363,0.563579,-0.866024,0.265149,0.0117967,-2.98023e-05,0.0897199,0.00692904,0.0248932,2.22833,5,0.1,21,0.9,-4.00542,-5.4496,0.595848,0.172664,0.208622,0.00280747,0.0590831,-0.475168,0.000979751,0.0317693,0.242652,5,0.1,22,0.9,-0.0799784,1.13176,0.507241,-0.259278,-0.721484,-0.0265722,-0.24365,-0.384867,0.0456087,0.0211502,1.51043,5,0.1,23,0.9,-3.61731,-3.53611,0.681908,0.085333,0.866026,0.185619,0.00312924,0,0.112351,0.0326378,2.24566,5,0.1,24,0.9,-1.69952,-0.0911118,0.763199,0.0334835,0.163018,0.396746,0.0114813,0.0557331,0.135619,0.0125987,0.21438,5,0.1,25,0.9,-3.87216,2.12896,0.815265,-0.0187941,-0.453481,0.361545,-0.0064373,-0.275016,0.123598,0.0249353,0.493863,5,0.1,26,0.9,5.03344,1.04378,0.546842,-0.865655,0.335811,0.0182485,-0.014782,0.257552,0.013791,0.0149905,2.19524,5,0.1,27,0.9,-4.84977,-3.51124,0.620736,0.866023,-0.025804,0.212243,2.98023e-05,-0.0147074,0.121236,0.0209428,2.24117,5,0.1,28,0.9,-3.53154,-1.91288,0.507615,-0.284508,0.866025,-0.023874,-0.16214,1.49012e-05,0.0279509,0.0119379,2.2181,5,0.1,29,0.9,-0.821872,-1.40096,0.545731,0.860828,-0.370594,0.0155888,0.152234,-0.427939,0.0281408,0.020102,2.20416,5,0.1
0,1,-3.58079,-2.85018,0.618403,0.866026,0.237566,-0.00922829,0,0.1297,-0.00184774,0.0171925,2.22807,5,0.1,1,1,5.03045,1.32899,0.630791,-0.286543,-0.204158,0.0355393,0.635862,1.44815,0.133485,0.00806018,0.474058,5,0.1,2,1,0.00584021,2.84521,0.591242,-0.336624,-0.218028,0.00646412,0.00727057,0.00464916,-0.000178814,0.00824865,0.122387,5,0.1,3,1,-4.8862,-2.37035,0.565356,0.839067,0.310391,0.0255793,-0.0181198,-0.00667572,-0.000536442,0.0102001,0.609352,5,0.1,4,1,2.22311,-3.45098,0.503054,-0.863409,-0.253171,-0.0148401,0.0524521,0.0398159,0.0429749,0.0134968,1.08086,5,0.1,5,1,-0.447434,0.0993985,0.547732,0.108878,0.304482,0.0385985,-0.00235438,-0.48618,-0.000864267,0.00895737,0.734975,5,0.1,6,1,-1.56326,4.67896,0.502311,0.86517,-0.612712,-0.0116304,-0.0170469,-0.09799,0.0353158,0.0153752,1.32218,5,0.1,7,1,-2.73655,2.41549,0.789572,0.0270128,0.0993609,0.413856,-0.000715256,-0.00202656,-0.0089407,0.0125504,0.138357,5,0.1,8,1,-2.82345,4.43327,0.855795,-0.0196159,-0.408626,0.364947,0.000357628,-0.0965595,-0.00789762,0.0259474,0.321472,5,0.1,9,1,1.40336,-2.4434,0.570084,-0.861135,0.153536,0.0197172,0.0977516,-0.254273,0.00318885,0.0131946,0.488638,5,0.1,10,1,-1.76584,-5.30704,0.557836,-0.246763,-0.400925,0.031133,0.00524521,0.00858307,-0.000655651,0.00820479,0.169369,5,0.1,11,1,-0.891874,-1.76609,0.651923,-0.338314,-0.246578,-0.0383452,0.00730157,0.00530481,0.000834465,0.0114216,2.84885,5,0.1,12,1,3.20166,-5.59518,0.636197,0.404942,0.254917,-0.0267327,-0.00870228,-0.00572205,0.000596046,0.00901485,0.251942,5,0.1,13,1,-3.89805,4.13323,0.86906,0.109315,-0.172257,0.355159,-0.0025034,0.00357628,-0.0076592,0.0135527,0.127616,5,0.1,14,1,0.446137,-0.179173,0.88339,0.00285208,0.666725,0.344582,-7.45058e-05,-0.152879,-0.00745058,0.0239044,0.567246,5,0.1,15,1,-3.06853,1.80713,0.630064,0.866026,0.165361,0.0106797,0,0.0361204,0.00235438,0.0107791,2.25302,5,0.1,16,1,0.486234,-5.13772,0.584154,0.194786,0.860775,0.0117064,-0.00420213,-0.105143,-0.000298023,0.0120655,0.926972,5,0.1,17,1,0.960654,-2.95109,0.501753,-0.0447884,0.517714,-0.0100687,0.000953674,-0.0112057,0.0367761,0.0111913,0.351887,5,0.1,18,1,2.29019,-0.340344,0.554792,-0.866026,-0.138336,0.0240847,0,-0.0296086,0.0051558,0.0150962,2.50182,5,0.1,19,1,1.94319,-3.06164,0.566767,-0.0894248,0.862908,0.017792,0.24277,-0.0623465,0.00941753,0.0233086,0.937744,5,0.1,20,1,3.00749,1.86047,0.564788,-0.866026,0.270137,0.0123113,0,0.00089407,0.00286102,0.0227377,2.23484,5,0.1,21,1,-3.98795,-5.43118,0.596132,0.175697,0.159431,0.00285953,-0.0038147,-0.496864,-8.9407e-05,0.0322666,0.230378,5,0.1,22,1,-0.107119,1.05785,0.50483,-0.28287,-0.753793,-0.0215009,-0.20523,-0.219345,0.0542402,0.0184554,0.788813,5,0.1,23,1,-3.60884,-3.44951,0.700951,0.0833094,0.866026,0.194211,-0.0429153,0,0.050813,0.0274164,2.24161,5,0.1,24,1,-1.69613,-0.0746176,0.803342,0.034073,0.165873,0.403692,-0.000715256,-0.00358194,-0.00873208,0.01293,0.145787,5,0.1,25,1,-3.87406,2.08247,0.851846,-0.0191271,-0.473368,0.367875,0.000476837,-0.104308,-0.00792742,0.0250335,0.344804,5,0.1,26,1,4.94685,1.07861,0.548737,-0.866032,0.359645,0.0196099,0.000238419,0.193954,0.0119209,0.0147012,2.16354,5,0.1,27,1,-4.76317,-3.51388,0.642469,0.866032,-0.0268877,0.221176,-0.000238419,-0.00584126,0.0481606,0.0218377,2.23799,5,0.1,28,1,-3.56067,-1.82627,0.50539,-0.296438,0.866026,-0.0204444,-0.0640154,-5.96046e-05,0.0393689,0.0106103,1.92333,5,0.1,29,1,-0.735401,-1.44004,0.547427,0.866026,-0.409037,0.0182629,0,-0.313044,0.023663,0.0204754,2.14087,5,0.1
0,1.1,-3.49419,-2.82568,0.61747,0.86595,0.252978,-0.00945032,-0.00302494,0.158876,-0.00206381,0.0171925,2.22807,5,0.1,1,1.1,5.00529,1.31589,0.635115,-0.21431,-0.0582187,0.0516664,0.781,1.42971,0.176981,0.00806018,0.474058,5,0.1,2,1.1,-0.0277715,2.82344,0.591888,-0.335148,-0.217076,0.00643302,0.0345603,0.0223517,-0.000685453,0.00824865,0.122387,5,0.1,3,1.1,-4.80242,-2.33936,0.56791,0.835388,0.309034,0.0254688,-0.0861585,-0.0318289,-0.00261143,0.0102001,0.609352,5,0.1,4,1.1,2.13681,-3.47606,0.501783,-0.863791,-0.248065,-0.0106222,-0.0166744,0.0692159,0.0406094,0.0134968,1.08086,5,0.1,5,1.1,-0.436563,0.127319,0.551586,0.1084,0.253199,0.0384267,-0.0111796,-0.529721,-0.00397861,0.00895737,0.734975,5,0.1,6,1.1,-1.47675,4.6172,0.501323,0.865019,-0.621702,-0.00818679,-0.0103787,-0.0545382,0.0329129,0.0153752,1.32218,5,0.1,7,1.1,-2.73386,2.42541,0.830896,0.0268836,0.0989333,0.412041,-0.00287592,-0.0101626,-0.0424944,0.0125504,0.138357,5,0.1,8,1.1,-2.8254,4.39188,0.892235,-0.0195347,-0.418961,0.363347,0.00199676,-0.0882745,-0.0374727,0.0259474,0.321472,5,0.1,9,1.1,1.31778,-2.42941,0.572071,-0.849284,0.125445,0.02001,0.167854,-0.299662,0.00178814,0.0131946,0.488638,5,0.1,10,1.1,-1.79048,-5.34707,0.560945,-0.245688,-0.399173,0.030998,0.0252798,0.0410974,-0.0031814,0.00820479,0.169369,5,0.1,11,1.1,-0.926762,-1.79144,0.648112,-0.368266,-0.266232,-0.0376522,-0.524092,-0.343286,0.0132583,0.0114216,2.84885,5,0.1,12,1.1,3.24209,-5.56957,0.633528,0.40317,0.258227,-0.0266138,-0.0415444,0.0527203,0.00275671,0.00901485,0.251942,5,0.1,13,1.1,-3.88714,4.11603,0.904522,0.108825,-0.171514,0.353603,-0.0112951,0.017643,-0.0364594,0.0135527,0.127616,5,0.1,14,1.1,0.446422,-0.114155,0.917797,0.00283858,0.625601,0.34307,-0.000301749,-0.635407,-0.0353828,0.0239044,0.567246,5,0.1,15,1.1,-2.98193,1.82388,0.631146,0.866026,0.169771,0.010966,0,0.0421554,0.00272691,0.0107791,2.25302,5,0.1,16,1.1,0.505683,-5.05191,0.585322,0.193932,0.856786,0.0116515,-0.0199992,-0.0220835,-0.00123307,0.0120655,0.926972,5,0.1,17,1.1,0.956122,-2.89949,0.500923,-0.046286,0.512775,-0.00661304,-0.0255033,-0.100598,0.0318103,0.0111913,0.351887,5,0.1,18,1.1,2.2046,-0.354352,0.557231,-0.836685,-0.141874,0.0247009,0.545233,-0.0330899,0.0057593,0.0150962,2.50182,5,0.1,19,1.1,1.93543,-2.97542,0.568595,-0.0663297,0.862898,0.0187545,0.217713,0.0138879,0.00873581,0.0233086,0.937744,5,0.1,20,1.1,2.92089,1.88727,0.566036,-0.866026,0.263712,0.0126544,0,-0.126362,0.00326335,0.0227377,2.23484,5,0.1,21,1.1,-3.97041,-5.41768,0.596418,0.174926,0.111303,0.00284454,-0.0180453,-0.457168,-0.000309199,0.0322666,0.230378,5,0.1,22,1.1,-0.13638,0.981385,0.502954,-0.301481,-0.774537,-0.0160108,-0.152688,-0.159282,0.0543632,0.0184554,0.788813,5,0.1,23,1.1,-3.60064,-3.3629,0.720658,0.0811674,0.866026,0.199962,-0.00685453,0,0.0528805,0.0274164,2.24161,5,0.1,24,1.1,-1.69273,-0.0580553,0.84365,0.0339251,0.165146,0.401921,-0.00348687,-0.017029,-0.0414588,0.01293,0.145787,5,0.1,25,1.1,-3.87597,2.03462,0.888579,-0.01904,-0.482997,0.366264,0.00196695,-0.0667274,-0.0377558,0.0250335,0.344804,5,0.1,26,1.1,4.86024,1.11578,0.550774,-0.866023,0.3853,0.0212255,-2.98023e-05,0.283808,0.0182427,0.0147012,2.16354,5,0.1,27,1.1,-4.67657,-3.5166,0.664873,0.866023,-0.0276007,0.227029,2.98023e-05,-0.00679493,0.0556856,0.0218377,2.23799,5,0.1,28,1.1,-3.59067,-1.73967,0.503552,-0.303273,0.866025,-0.0162422,-0.057146,1.49012e-05,0.043612,0.0106103,1.92333,5,0.1,29,1.1,-0.648799,-1.48266,0.549382,0.865987,-0.444165,0.0208757,-0.00152737,-0.353649,0.0265129,0.0204754,2.14087,5,0.1
0,1.2,-3.40763,-2.79967,0.616517,0.864822,0.265992,-0.00955164,-0.0243187,0.0872612,0.000447035,0.0204943,2.53323,5,0.1,1,1.2,4.98781,1.31691,0.641157,-0.135279,0.0747532,0.0688359,0.778675,1.20032,0.157505,0.0141662,1.94054,5,0.1,2,1.2,-0.0609866,2.80193,0.592525,-0.327671,-0.212234,0.0062868,0.123088,0.079751,-0.00235438,0.00883774,0.138098,5,0.1,3,1.2,-4.71963,-2.30873,0.570435,0.816751,0.302142,0.0249013,-0.306845,-0.113487,-0.00935793,0.0108869,0.405184,5,0.1,4,1.2,2.05052,-3.50043,0.500915,-0.8596,-0.23821,-0.00684708,0.128508,0.132442,0.0344217,0.0111746,0.782073,5,0.1,5,1.2,-0.42582,0.149985,0.555394,0.105982,0.200275,0.0375688,-0.0398308,-0.521176,-0.0141263,0.00938969,1.00046,5,0.1,6,1.2,-1.39049,4.55501,0.50066,0.857604,-0.619078,-0.00515282,-0.168443,0.12517,0.0273287,0.0126454,1.08831,5,0.1,7,1.2,-2.73119,2.43522,0.871731,0.0262737,0.0967324,0.40285,-0.00989437,-0.0363588,-0.151366,0.0135974,0.156121,5,0.1,8,1.2,-2.82734,4.3497,0.928245,-0.0191033,-0.422585,0.355239,0.00727177,0.0305176,-0.133425,0.0264308,0.221695,5,0.1,9,1.2,1.234,-2.41839,0.574073,-0.822839,0.0950098,0.0199288,0.379622,-0.30303,-0.00402331,0.0133537,0.194781,5,0.1,10,1.2,-1.81483,-5.38663,0.564017,-0.24021,-0.390279,0.0303075,0.0901818,0.146627,-0.0113845,0.011424,0.112621,5,0.1,11,1.2,-0.966529,-1.81999,0.644435,-0.428663,-0.305548,-0.0356659,-0.621378,-0.401318,0.0264347,0.00872365,2.66938,5,0.1,12,1.2,3.28205,-5.54352,0.630891,0.394171,0.262165,-0.0260189,-0.147939,0.0119209,0.00977516,0.00916793,0.182874,5,0.1,13,1.2,-3.87635,4.09903,0.939566,0.106388,-0.167692,0.345714,-0.0398159,0.0629425,-0.129879,0.0158726,0.176237,5,0.1,14,1.2,0.446703,-0.0553324,0.951797,0.00277534,0.545984,0.335416,-0.00105798,-0.927726,-0.126034,0.0204302,0.721733,5,0.1,15,1.2,-2.89532,1.84101,0.632253,0.866026,0.172108,0.0111178,0,-0.00220537,-0.000149012,0.0133872,2.25258,5,0.1,16,1.2,0.524903,-4.96652,0.586477,0.189605,0.848281,0.011389,-0.0712276,-0.181437,-0.00429153,0.00999865,0.660994,5,0.1,17,1.2,0.951359,-2.84895,0.500409,-0.0489473,0.495511,-0.00378937,-0.0237823,-0.252485,0.0244081,0.0108286,0.29319,5,0.1,18,1.2,2.12428,-0.368656,0.559722,-0.764358,-0.143585,0.0249982,0.869155,0.00448525,-0.00077486,0.0154879,2.76952,5,0.1,19,1.2,1.92983,-2.88925,0.570506,-0.0461191,0.857478,0.0193536,0.18549,-0.156283,0.00244379,0.0164103,0.996388,5,0.1,20,1.2,2.83428,1.91282,0.567314,-0.866026,0.245526,0.0128403,0,-0.233829,-0.000119209,0.022593,2.25812,5,0.1,21,1.2,-3.95307,-5.40872,0.5967,0.171024,0.0693917,0.00277907,-0.0642538,-0.376225,-0.00104308,0.0310535,0.434848,5,0.1,22,1.2,-0.16711,0.903477,0.501617,-0.311035,-0.779589,-0.0108346,-0.028975,0.0825822,0.0483692,0.0190109,0.559599,5,0.1,23,1.2,-3.59255,-3.2763,0.740846,0.0807405,0.866026,0.202872,-0.00691414,0,-0.0025332,0.0262949,2.24092,5,0.1,24,1.2,-1.68937,-0.0416885,0.883483,0.03317,0.161461,0.392954,-0.012517,-0.0606513,-0.147641,0.0142755,0.164507,5,0.1,25,1.2,-3.87786,1.98619,0.924877,-0.0186145,-0.483111,0.358091,0.00703335,0.0789165,-0.134468,0.0232904,0.233664,5,0.1,26,1.2,4.77364,1.15564,0.552983,-0.866032,0.410324,0.0228852,0.000238419,0.191271,0.0134408,0.0151683,1.74515,5,0.1,27,1.2,-4.58996,-3.51939,0.687778,0.866032,-0.0279725,0.230078,-0.000238419,0.000357628,-0.0039041,0.0191889,2.23733,5,0.1,28,1.2,-3.62116,-1.65307,0.502145,-0.305247,0.866026,-0.011912,0.0281334,-5.96046e-05,0.0422299,0.0108398,1.48506,5,0.1,29,1.2,-0.56222,-1.52867,0.551593,0.865415,-0.473645,0.0232086,-0.0122046,-0.210583,0.0186861,0.0195449,2.10987,5,0.1
0,1.3,-3.32221,-2.77314,0.616279,0.835842,0.26009,0.0107879,-0.492111,-0.186846,0.361629,0.0204943,2.53323,5,0.1,1,1.3,4.97715,1.32819,0.648569,-0.0872366,0.131234,0.0770379,0.229031,0.0286773,0.0153258,0.0141662,1.94054,5,0.1,2,1.3,-0.0933448,2.78097,0.593146,-0.320981,-0.207897,0.00615939,0.0332638,0.0216067,-0.000625849,0.00883774,0.138098,5,0.1,3,1.3,-4.63945,-2.27907,0.572879,0.786417,0.290924,0.0239762,-0.325233,-0.120252,-0.009913,0.0108869,0.405184,5,0.1,4,1.3,1.96501,-3.52359,0.500389,-0.851243,-0.225006,-0.00382466,0.0807866,0.137523,0.0258051,0.0111746,0.782073,5,0.1,5,1.3,-0.415417,0.167355,0.559082,0.102044,0.147115,0.0361727,-0.0422075,-0.522563,-0.0149645,0.00938969,1.00046,5,0.1,6,1.3,-1.30542,4.49355,0.500269,0.844417,-0.611041,-0.00279015,-0.134207,0.0675917,0.0198446,0.0126454,1.08831,5,0.1,7,1.3,-2.7286,2.44477,0.911514,0.0257351,0.0947528,0.394622,-0.00268221,-0.00989437,-0.0409186,0.0135974,0.156121,5,0.1,8,1.3,-2.82921,4.30757,0.963116,-0.0183858,-0.419866,0.342049,0.0076592,0.041455,-0.141412,0.0264308,0.221695,5,0.1,9,1.3,1.15373,-2.41036,0.576047,-0.781029,0.0661224,0.0195278,0.470549,-0.271261,-0.00470877,0.0133537,0.194781,5,0.1,10,1.3,-1.83841,-5.42494,0.566992,-0.231294,-0.375785,0.0291821,0.0956059,0.155389,-0.0120699,0.011424,0.112621,5,0.1,11,1.3,-1.01298,-1.85194,0.641005,-0.503524,-0.327736,-0.0328917,-0.809442,-0.057742,0.0294149,0.00872365,2.66938,5,0.1,12,1.3,3.32074,-5.5174,0.628337,0.379544,0.258571,-0.0250526,-0.15685,-0.0846386,0.0103563,0.00916793,0.182874,5,0.1,13,1.3,-3.86575,4.08241,0.973503,0.106896,-0.165911,0.332875,0.0367761,-0.0122786,-0.137646,0.0158726,0.176237,5,0.1,14,1.3,0.446975,-0.00566806,0.984722,0.00267113,0.44501,0.322958,-0.00111386,-1.06592,-0.133567,0.0204302,0.721733,5,0.1,15,1.3,-2.80872,1.85826,0.633367,0.866026,0.173121,0.0111824,0,0.0125095,0.000804663,0.0133872,2.25258,5,0.1,16,1.3,0.543515,-4.88245,0.587595,0.182564,0.833762,0.0109653,-0.0754856,-0.146985,-0.00454113,0.00999865,0.660994,5,0.1,17,1.3,0.946443,-2.80097,0.500138,-0.0484711,0.4613,-0.00177501,0.0297949,-0.424623,0.0159852,0.0108286,0.29319,5,0.1,18,1.3,2.05293,-0.383026,0.562223,-0.657806,-0.143941,0.0250605,1.16672,-0.00389293,0.000681728,0.0154879,2.76952,5,0.1,19,1.3,1.925,-2.80493,0.572454,-0.0600958,0.822989,0.0195907,-0.396781,-0.522748,0.00142306,0.0164103,0.996388,5,0.1,20,1.3,2.74768,1.93598,0.568601,-0.866026,0.2158,0.012922,0,-0.34944,0.0010021,0.022593,2.25812,5,0.1,21,1.3,-3.93618,-5.40348,0.596974,0.167532,0.0370301,0.00272244,-0.017345,-0.270396,-0.000275671,0.0310535,0.434848,5,0.1,22,1.3,-0.19825,0.826307,0.500759,-0.310526,-0.759906,-0.00649747,0.0456515,0.315934,0.0380278,0.0190109,0.559599,5,0.1,23,1.3,-3.58446,-3.1897,0.761174,0.0815049,0.866026,0.203906,0.0157654,0,0.0118762,0.0262949,2.24092,5,0.1,24,1.3,-1.68609,-0.0257438,0.922288,0.0324881,0.158165,0.384929,-0.00340492,-0.0163895,-0.039909,0.0142755,0.164507,5,0.1,25,1.3,-3.87968,1.93827,0.960029,-0.0179213,-0.475081,0.344797,0.00740588,0.0992343,-0.142537,0.0232904,0.233664,5,0.1,26,1.3,4.68751,1.19772,0.555345,-0.851639,0.431316,0.0243542,0.292212,0.200935,0.0142567,0.0151683,1.74515,5,0.1,27,1.3,-4.50336,-3.52219,0.710831,0.866023,-0.0281293,0.23128,2.98023e-05,-0.00189245,0.0148155,0.0191889,2.23733,5,0.1,28,1.3,-3.65152,-1.56647,0.501157,-0.301361,0.86583,-0.0079466,0.0592023,-0.0077635,0.0365525,0.0108398,1.48506,5,0.1,29,1.3,-0.475683,-1.57734,0.553979,0.865567,-0.501113,0.0242477,0.00302523,-0.29774,0.00236183,0.0195449,2.10987,5,0.1
0,1.4,-3.24147,-2.74839,0.619458,0.776315,0.232047,0.0548229,-0.662327,-0.358343,0.484228,0.0156851,2.42273,5,0.1,1,1.4,4.96898,1.3402,0.656175,-0.0810146,0.0984579,0.0735298,-0.067234,-0.603795,-0.0779629,0.014496,1.5467,5,0.1,2,1.4,-0.125273,2.76029,0.593759,-0.317131,-0.205398,0.00608861,0.0600219,0.0389814,-0.00116229,0.00824864,0.083064,5,0.1,3,1.4,-4.56263,-2.25065,0.575221,0.74749,0.27653,0.0227898,-0.469923,-0.173926,-0.0143349,0.00989708,0.266697,5,0.1,4,1.4,1.8805,-3.54536,0.50012,-0.836307,-0.209737,-0.00170469,0.24718,0.171661,0.0166297,0.00948251,0.549331,5,0.1,5,1.4,-0.405449,0.179578,0.562615,0.0969931,0.0989243,0.0343829,-0.0610054,-0.429079,-0.0216365,0.012075,1.28153,5,0.1,6,1.4,-1.22185,4.4329,0.500077,0.824189,-0.6001,-0.00118315,-0.297189,0.173569,0.0124276,0.0112619,0.764534,5,0.1,7,1.4,-2.72604,2.45419,0.950767,0.0254273,0.0936091,0.389889,-0.00488758,-0.0177622,-0.0738204,0.0114262,0.0923721,5,0.1,8,1.4,-2.83101,4.26593,0.996528,-0.0174701,-0.411344,0.325122,0.0110865,0.140667,-0.204444,0.0223081,0.149656,5,0.1,9,1.4,1.07822,-2.40502,0.57797,-0.72653,0.0413239,0.0188679,0.627458,-0.222802,-0.0089705,0.00838036,0.817143,5,0.1,10,1.4,-1.861,-5.46165,0.569843,-0.219846,-0.357187,0.0277385,0.138164,0.22459,-0.0174642,0.011173,0.130919,5,0.1,11,1.4,-1.06724,-1.88454,0.63787,-0.579077,-0.320008,-0.0297293,-0.653267,0.198424,0.0340343,0.00886672,2.30085,5,0.1,12,1.4,3.35782,-5.49213,0.625889,0.360763,0.245214,-0.0238121,-0.226855,-0.181913,0.0149608,0.00933377,0.149704,5,0.1,13,1.4,-3.85484,4.06574,1.00602,0.111437,-0.167525,0.316402,0.0442266,-0.00882149,-0.19902,0.0142158,0.128196,5,0.1,14,1.4,0.447236,0.0334524,1.01627,0.00253841,0.33741,0.306973,-0.00159442,-1.06582,-0.193059,0.0185535,0.961352,5,0.1,15,1.4,-2.72212,1.87559,0.634487,0.866026,0.172922,0.0111684,0,-0.0234246,-0.00151992,0.0128313,2.25287,5,0.1,16,1.4,0.561348,-4.8,0.588666,0.173528,0.812471,0.0104219,-0.109136,-0.305414,-0.00655651,0.00983586,0.459081,5,0.1,17,1.4,0.941809,-2.75719,0.500027,-0.0436395,0.412017,-0.000557303,0.0638366,-0.553846,0.00861287,0.0113771,0.245039,5,0.1,18,1.4,1.99288,-0.397402,0.564726,-0.545707,-0.143056,0.0249073,1.02347,0.0269264,-0.00470877,0.0149335,2.96506,5,0.1,19,1.4,1.91651,-2.72577,0.574413,-0.11332,0.755185,0.0194907,-0.614405,-0.821471,-0.00402331,0.0169394,0.771451,5,0.1,20,1.4,2.66108,1.9557,0.569895,-0.866026,0.177699,0.0129133,0,-0.403285,-0.00163913,0.02191,2.27686,5,0.1,21,1.4,-3.91952,-5.40096,0.597245,0.165528,0.0152349,0.00268966,-0.031352,-0.167131,-0.000506639,0.0331215,0.813836,5,0.1,22,1.4,-0.228909,0.75231,0.50028,-0.300895,-0.715865,-0.0032708,0.150576,0.56538,0.0264645,0.0184811,0.724414,5,0.1,23,1.4,-3.57623,-3.1031,0.781571,0.0827849,0.866026,0.203319,0.00536442,0,-0.0315309,0.0269513,2.24129,5,0.1,24,1.4,-1.68286,-0.0100109,0.960577,0.0320941,0.156268,0.380312,-0.00613928,-0.0295803,-0.0720024,0.0139347,0.096305,5,0.1,25,1.4,-3.88143,1.8914,0.993709,-0.017035,-0.460342,0.327735,0.0106096,0.207186,-0.206083,0.0218222,0.155633,5,0.1,26,1.4,4.60432,1.24168,0.557841,-0.807142,0.445825,0.0254527,0.597239,0.0699162,0.00652671,0.0185904,1.28279,5,0.1,27,1.4,-4.41676,-3.52501,0.733976,0.866032,-0.0280797,0.23081,-0.000238419,0.00393391,-0.0334084,0.0177119,2.23808,5,0.1,28,1.4,-3.68125,-1.47999,0.500532,-0.291836,0.862914,-0.00468194,0.137687,-0.0622272,0.0284314,0.0102983,1.13107,5,0.1,29,1.4,-0.389162,-1.62881,0.556391,0.864184,-0.526157,0.0237405,-0.0368357,-0.173807,-0.0120997,0.0185536,2.08343,5,0.1
0,1.5,-3.16752,-2.72654,0.626908,0.702599,0.20874,0.0899257,-0.67544,-0.133887,0.229508,0.0156851,2.42273,5,0.1,1,1.5,4.96006,1.34608,0.663028,-0.101168,0.0115557,0.0625944,-0.300407,-1.06002,-0.134364,0.014496,1.5467,5,0.1,2,1.5,-0.15661,2.73991,0.594363,-0.308676,-0.202364,0.00599837,0.115234,0.0311136,-0.000920147,0.00824864,0.083064,5,0.1,3,1.5,-4.49015,-2.22384,0.577431,0.702664,0.259941,0.0214227,-0.447869,-0.165716,-0.0136569,0.00989708,0.266697,5,0.1,4,1.5,1.79797,-3.56551,0.500018,-0.814589,-0.19334,-0.00046771,0.2212,0.161305,0.00859052,0.00948251,0.549331,5,0.1,5,1.5,-0.396043,0.187369,0.56595,0.0911743,0.0583075,0.0323195,-0.0581276,-0.346169,-0.0206083,0.012075,1.28153,5,0.1,6,1.5,-1.14079,4.37365,0.50001,0.797325,-0.585457,-0.000266545,-0.271671,0.145048,0.00624359,0.0112619,0.764534,5,0.1,7,1.5,-2.72352,2.46339,0.989457,0.0250474,0.0897139,0.384145,-0.0038743,-0.0588596,-0.0589564,0.0114262,0.0923721,5,0.1,8,1.5,-2.8327,4.22546,1.02806,-0.016414,-0.397974,0.305622,0.0105351,0.141114,-0.194818,0.0223081,0.149656,5,0.1,9,1.5,1.00989,-2.40199,0.579971,-0.629766,0.0197917,0.0224815,1.24228,-0.197262,0.0706352,0.00838036,0.817143,5,0.1,10,1.5,-1.88248,-5.49629,0.572533,-0.21111,-0.335763,0.0260728,0.0526756,0.213981,-0.0166334,0.011173,0.130919,5,0.1,11,1.5,-1.12855,-1.91501,0.635064,-0.647018,-0.285152,-0.026418,-0.654228,0.461817,0.0325553,0.00886672,2.30085,5,0.1,12,1.5,3.3928,-5.46877,0.62358,0.339124,0.21989,-0.0223848,-0.216186,-0.313193,0.0142641,0.00933377,0.149704,5,0.1,13,1.5,-3.84341,4.04887,1.0367,0.11769,-0.170402,0.297419,0.0706464,-0.0369549,-0.189625,0.0142158,0.128196,5,0.1,14,1.5,0.447482,0.0619992,1.04604,0.00238642,0.235267,0.288558,-0.00151992,-0.961896,-0.183955,0.0185535,0.961352,5,0.1,15,1.5,-2.63552,1.89283,0.6356,0.866026,0.172119,0.0111156,0,-0.00260025,-0.000175089,0.0128313,2.25287,5,0.1,16,1.5,0.578176,-4.72016,0.589676,0.163119,0.784816,0.00979649,-0.103991,-0.278592,-0.00624731,0.00983586,0.459081,5,0.1,17,1.5,0.937943,-2.71864,0.500006,-0.0321859,0.360038,4.26546e-05,0.153754,-0.492871,0.00371039,0.0113771,0.245039,5,0.1,18,1.5,1.94316,-0.411739,0.567197,-0.454549,-0.144965,0.0245038,0.679545,-0.0497047,-0.00441074,0.0149335,2.96506,5,0.1,19,1.5,1.90166,-2.65453,0.576342,-0.186841,0.667994,0.0190985,-0.804588,-0.91657,-0.00453368,0.0169394,0.771451,5,0.1,20,1.5,2.57448,1.97144,0.571191,-0.866026,0.1371,0.0130974,0,-0.402391,0.00405312,0.02191,2.27686,5,0.1,21,1.5,-3.90317,-5.40022,0.597511,0.161002,0.000158697,0.00261627,-0.0620335,-0.126213,-0.00100583,0.0331215,0.813836,5,0.1,22,1.5,-0.25834,0.683921,0.500066,-0.288339,-0.648505,-0.00121025,0.113955,0.769779,0.0152029,0.0184811,0.724414,5,0.1,23,1.5,-3.56789,-3.01649,0.801812,0.0843916,0.866026,0.201871,0.0207275,0,-0.00878796,0.0269513,2.24129,5,0.1,24,1.5,-1.67967,0.00549602,0.998316,0.0316165,0.153966,0.37471,-0.00488758,-0.023625,-0.0574999,0.0139347,0.096305,5,0.1,25,1.5,-3.88309,1.84637,1.02549,-0.0160221,-0.440405,0.308077,0.0101179,0.206046,-0.196379,0.0218222,0.155633,5,0.1,26,1.5,4.5274,1.28665,0.560421,-0.724141,0.453217,0.0261249,1.02592,0.0559613,0.00558794,0.0185904,1.28279,5,0.1,27,1.5,-4.33016,-3.5278,0.756967,0.866023,-0.0279255,0.229448,2.98023e-05,0.000745058,-0.00688806,0.0177119,2.23808,5,0.1,28,1.5,-3.70942,-1.39375,0.500191,-0.2687,0.863301,-0.00229804,0.312105,0.0237375,0.0192635,0.0102983,1.13107,5,0.1,29,1.5,-0.302766,-1.68249,0.558697,0.864655,-0.54855,0.0223044,0.0194013,-0.235111,-0.016734,0.0185536,2.08343,5,0.1
0,1.6,-3.1,-2.70614,0.636708,0.654447,0.200653,0.102933,-0.292182,-0.0478029,0.0410676,0.0189571,2.26404,5,0.1,1,1.6,4.9483,1.34168,0.668566,-0.13485,-0.100437,0.0478074,-0.346184,-1.12301,-0.156254,0.013898,1.2691,5,0.1,2,1.6,-0.18677,2.71988,0.594957,-0.293119,-0.197577,0.00585765,0.199385,0.0709295,-0.00211596,0.00810417,0.812648,5,0.1,3,1.6,-4.42222,-2.19871,0.579502,0.654376,0.242078,0.0199512,-0.53215,-0.196934,-0.0162423,0.00995104,0.232996,5,0.1,4,1.6,1.7178,-3.58402,0.500004,-0.78634,-0.176632,0.000101328,0.367165,0.176072,0.00318885,0.00911708,0.377818,5,0.1,5,1.6,-0.38723,0.191827,0.569074,0.0849076,0.0348527,0.0300974,-0.0690669,-0.108406,-0.0244677,0.0140907,3.60852,5,0.1,6,1.6,-1.06259,4.31595,0.500006,0.764543,-0.566733,0.00013411,-0.405431,0.24724,0.00208616,0.0110025,0.525937,5,0.1,7,1.6,-2.72104,2.47201,1.02748,0.0244558,0.0820994,0.37508,-0.00882149,-0.0919104,-0.134826,0.0128438,0.0733678,5,0.1,8,1.6,-2.83429,4.18646,1.0576,-0.0152826,-0.380707,0.284618,0.012517,0.213385,-0.231504,0.0255433,0.099846,5,0.1,9,1.6,0.953694,-2.40089,0.582632,-0.489901,0.00351071,0.0311166,1.50234,-0.122666,0.0939071,0.00677917,0.519698,5,0.1,10,1.6,-1.90336,-5.52875,0.575053,-0.206515,-0.312686,0.0242814,0.0512004,0.254154,-0.0197887,0.0089746,0.162199,5,0.1,11,1.6,-1.19618,-1.94103,0.632585,-0.701204,-0.233972,-0.0231594,-0.393629,0.535309,0.0328422,0.00919631,1.96073,5,0.1,12,1.6,3.42558,-5.44848,0.621416,0.315815,0.184667,-0.0208467,-0.256896,-0.381947,0.0169575,0.00995291,0.244217,5,0.1,13,1.6,-3.83131,4.03167,1.06545,0.123811,-0.172889,0.276974,0.0444651,-0.00429153,-0.225246,0.0132994,0.157789,5,0.1,14,1.6,0.447713,0.0809883,1.07393,0.00222325,0.147482,0.268725,-0.00181794,-0.784449,-0.21857,0.0223888,3.92133,5,0.1,15,1.6,-2.54891,1.91,0.636708,0.866026,0.170699,0.0110239,0,-0.0327229,-0.00214577,0.0110962,2.25348,5,0.1,16,1.6,0.593944,-4.64323,0.590623,0.151907,0.751555,0.00912398,-0.12356,-0.407457,-0.00745058,0.00981953,0.315385,5,0.1,17,1.6,0.935564,-2.68505,0.500023,-0.0149339,0.312239,0.000245869,0.182241,-0.467896,0.000566244,0.0141879,0.232889,5,0.1,18,1.6,1.9,-0.426507,0.569618,-0.419593,-0.150317,0.0238493,0.0417233,-0.0459403,-0.00941753,0.0148944,2.12565,5,0.1,19,1.6,1.87899,-2.59243,0.578224,-0.265282,0.573051,0.018464,-0.726044,-0.976086,-0.00864267,0.0201241,0.271648,5,0.1,20,1.6,2.48787,1.98318,0.572521,-0.866026,0.0983238,0.0135049,0,-0.368357,0.00315905,0.0221037,2.27556,5,0.1,21,1.6,-3.88745,-5.40072,0.597766,0.152665,-0.00879765,0.00248104,-0.105977,-0.0488758,-0.00172853,0.0296577,3.13241,5,0.1,22,1.6,-0.286575,0.623172,0.500005,-0.275819,-0.564241,-0.000135601,0.145853,0.904173,0.00679493,0.018577,0.408496,5,0.1,23,1.6,-3.55936,-2.92989,0.821917,0.0858903,0.866026,0.199625,0.005126,0,-0.0441372,0.0295331,2.24219,5,0.1,24,1.6,-1.67655,0.0207364,1.03541,0.0308663,0.150332,0.365865,-0.0110865,-0.0539988,-0.131428,0.0118146,0.0733785,5,0.1,25,1.6,-3.88463,1.80345,1.05527,-0.014931,-0.416711,0.286904,0.0121593,0.2774,-0.233412,0.0240503,0.102904,5,0.1,26,1.6,4.46057,1.33208,0.563051,-0.608754,0.453323,0.0263467,1.25122,-0.0687242,-0.00205636,0.0168394,1.18807,5,0.1,27,1.6,-4.24356,-3.53059,0.779834,0.866032,-0.0276566,0.227204,-0.000238419,0.00560284,-0.0472069,0.0159518,2.23945,5,0.1,28,1.6,-3.73453,-1.30746,0.500043,-0.231814,0.859967,-0.000806153,0.41461,-0.121236,0.0107884,0.0115314,0.784725,5,0.1,29,1.6,-0.216262,-1.73836,0.560835,0.864577,-0.566524,0.0203818,-0.0289679,-0.0967979,-0.0217259,0.0187254,2.12936,5,0.1
0,1.7,-3.03494,-2.68657,0.64777,0.65534,0.18849,0.122888,0.224918,-0.186011,0.317153,0.0189571,2.26404,5,0.1,1,1.7,4.93291,1.32575,0.672537,-0.173993,-0.219642,0.0314578,-0.409752,-1.20531,-0.166111,0.013898,1.2691,5,0.1,2,1.7,-0.214791,2.70005,0.595499,-0.2647,-0.202288,0.00470281,0.356101,-0.132859,-0.019066,0.00810417,0.812648,5,0.1,3,1.7,-4.35932,-2.17528,0.58142,0.604487,0.228064,0.0184289,-0.483483,-0.0998676,-0.0147484,0.00995104,0.232996,5,0.1,4,1.7,1.64088,-3.60084,0.500025,-0.752518,-0.160161,0.000278931,0.337087,0.157654,0.000569969,0.00911708,0.377818,5,0.1,5,1.7,-0.37805,0.195174,0.572105,0.107312,0.0364668,0.0317133,0.450652,0.151036,0.0472702,0.0140907,3.60852,5,0.1,6,1.7,-0.988038,4.26042,0.500027,0.727012,-0.544268,0.000239071,-0.371084,0.223041,0.000175089,0.0110025,0.525937,5,0.1,7,1.7,-2.71863,2.4797,1.06443,0.023758,0.0712249,0.364411,-0.00633299,-0.122651,-0.097245,0.0128438,0.0733678,5,0.1,8,1.7,-2.83576,4.14941,1.08496,-0.014111,-0.360582,0.262917,0.0113398,0.201017,-0.2103,0.0255433,0.099846,5,0.1,9,1.7,0.911996,-2.40114,0.586339,-0.34658,-0.00768565,0.0439696,1.3516,-0.0753552,0.151023,0.00677917,0.519698,5,0.1,10,1.7,-1.92406,-5.55896,0.577399,-0.209666,-0.293189,0.0227635,-0.0885427,0.154078,-0.0119917,0.0089746,0.162199,5,0.1,11,1.7,-1.26827,-1.96162,0.630426,-0.739705,-0.177689,-0.0200663,-0.336006,0.542939,0.0293627,0.00919631,1.96073,5,0.1,12,1.7,3.45609,-5.43197,0.619402,0.296107,0.145196,-0.0195459,-0.155792,-0.399619,0.0102818,0.00995291,0.244217,5,0.1,13,1.7,-3.81854,4.01417,1.09221,0.132699,-0.178692,0.259694,0.116616,-0.0922382,-0.136584,0.0132994,0.157789,5,0.1,14,1.7,0.447926,0.0921774,1.09963,0.00202213,0.0799668,0.244501,-0.00219606,-0.564919,-0.264943,0.0223888,3.92133,5,0.1,15,1.7,-2.46231,1.92697,0.637804,0.866026,0.16914,0.0109207,0,-0.00840425,-0.000566244,0.0110962,2.25348,5,0.1,16,1.7,0.608546,-4.57016,0.5915,0.140324,0.709008,0.00842614,-0.112243,-0.45684,-0.00675395,0.00981953,0.315385,5,0.1,17,1.7,0.935037,-2.65617,0.500048,0.00472283,0.265279,0.000238046,0.202466,-0.469029,-0.000610948,0.0141879,0.232889,5,0.1,18,1.7,1.85701,-0.441549,0.57196,-0.45021,-0.148494,0.022989,-0.560395,0.0759605,-0.00867248,0.0148944,2.12565,5,0.1,19,1.7,1.84904,-2.54003,0.580029,-0.331062,0.474843,0.0176401,-0.570104,-0.979513,-0.00843033,0.0201241,0.271648,5,0.1,20,1.7,2.40127,1.99126,0.573894,-0.866026,0.0642221,0.0139737,0,-0.312045,0.00520423,0.0221037,2.27556,5,0.1,21,1.7,-3.87271,-5.40206,0.598005,0.141879,-0.0186503,0.00230521,-0.112355,-0.0832081,-0.00183284,0.0296577,3.13241,5,0.1,22,1.7,-0.313154,0.571415,0.500017,-0.253286,-0.4698,0.000296067,0.294095,0.970405,0.00217929,0.018577,0.408496,5,0.1,23,1.7,-3.55071,-2.84329,0.841733,0.0872966,0.866026,0.197145,0.0172406,0,-0.0167713,0.0295331,2.24219,5,0.1,24,1.7,-1.67351,0.0354757,1.07144,0.0299891,0.14413,0.355465,-0.00799447,-0.0732932,-0.0948161,0.0118146,0.0733785,5,0.1,25,1.7,-3.88607,1.76311,1.08285,-0.0137921,-0.390522,0.265024,0.0110418,0.258483,-0.212029,0.0240503,0.102904,5,0.1,26,1.7,4.40611,1.3771,0.565677,-0.479388,0.446828,0.0261522,1.31053,-0.0789389,-0.00290945,0.0168394,1.18807,5,0.1,27,1.7,-4.15695,-3.53334,0.802402,0.866023,-0.02736,0.224679,2.98023e-05,0.00187755,-0.0162423,0.0159518,2.23945,5,0.1,28,1.7,-3.75554,-1.22188,0.500005,-0.187595,0.85237,-4.05125e-05,0.459746,-0.0731573,0.00490621,0.0115314,0.784725,5,0.1,29,1.7,-0.129815,-1.79481,0.562768,0.865048,-0.556002,0.0183,0.0141007,0.283018,-0.0202693,0.0187254,2.12936,5,0.1
0,1.8,-2.968,-2.66881,0.661822,0.684518,0.165218,0.159149,0.294805,-0.271201,0.376821,0.0197556,1.77505,5,0.1,1,1.8,4.91354,1.298,0.674868,-0.212157,-0.331879,0.0153929,-0.333786,-0.999033,-0.151664,0.0144086,0.987658,5,0.1,2,1.8,-0.239311,2.67904,0.595859,-0.224277,-0.218481,0.00238717,0.441462,-0.166535,-0.0256896,0.00968815,0.754234,5,0.1,3,1.8,-4.30133,-2.15293,0.583188,0.554669,0.219238,0.0169083,-0.524759,-0.0888109,-0.015974,0.0120945,0.160673,5,0.1,4,1.8,1.56745,-3.61607,0.500053,-0.714248,-0.144374,0.00025332,0.447273,0.161052,-0.000923872,0.00822811,0.256505,5,0.1,5,1.8,-0.36466,0.2,0.575566,0.163239,0.0638049,0.0378698,0.616401,0.372835,0.0685155,0.00891992,3.23313,5,0.1,6,1.8,-0.917308,4.20721,0.500049,0.685968,-0.518584,0.000196695,-0.467449,0.304699,-0.000864267,0.0109639,0.357071,5,0.1,7,1.8,-2.71629,2.48618,1.10032,0.0229776,0.0581205,0.352475,-0.0100136,-0.136971,-0.154376,0.0151608,0.149466,5,0.1,8,1.8,-2.83711,4.11441,1.11018,-0.0129461,-0.338519,0.241247,0.0122786,0.248432,-0.228286,0.0249413,0.113711,5,0.1,9,1.8,0.883761,-2.40205,0.591503,-0.221682,-0.00802279,0.0592008,1.13785,0.0780821,0.144571,0.00794353,0.408413,5,0.1,10,1.8,-1.94552,-5.58755,0.579618,-0.21975,-0.278699,0.021635,-0.0939965,0.14925,-0.0115633,0.00782786,0.0994467,5,0.1,11,1.8,-1.34356,-1.97695,0.628563,-0.761628,-0.132358,-0.0172287,-0.0750422,0.341356,0.0276268,0.011273,1.64027,5,0.1,12,1.8,3.48497,-5.41943,0.617496,0.281453,0.10612,-0.0185788,-0.1508,-0.375748,0.00995398,0.00878293,0.21798,5,0.1,13,1.8,-3.80468,3.99582,1.11753,0.144243,-0.187945,0.24685,0.101924,-0.0783205,-0.132143,0.0132487,0.108317,5,0.1,14,1.8,0.448116,0.0977117,1.12269,0.0017859,0.0342723,0.215977,-0.0025183,-0.352163,-0.304103,0.0213292,3.98354,5,0.1,15,1.8,-2.37571,1.94381,0.638892,0.866026,0.167313,0.0108004,0,-0.0351667,-0.00226498,0.00997598,2.25417,5,0.1,16,1.8,0.622008,-4.50171,0.592309,0.128759,0.658011,0.00772923,-0.121862,-0.571489,-0.00727177,0.0116974,0.246772,5,0.1,17,1.8,0.936497,-2.63197,0.500067,0.0240952,0.218874,0.000144541,0.178784,-0.457048,-0.00116229,0.0122163,0.213296,5,0.1,18,1.8,1.80883,-0.455862,0.574211,-0.515193,-0.136346,0.0219658,-0.668168,0.16126,-0.0123978,0.0132311,1.69243,5,0.1,19,1.8,1.81347,-2.49739,0.581747,-0.376132,0.378716,0.0166789,-0.318885,-0.935912,-0.0111461,0.0171729,0.186392,5,0.1,20,1.8,2.31467,1.99623,0.575314,-0.866026,0.0361711,0.0143722,0,-0.248194,0.00208616,0.0236625,2.6294,5,0.1,21,1.8,-3.85912,-5.40401,0.598226,0.129771,-0.0161052,0.00210851,-0.131249,0.162601,-0.00214577,0.0326432,3.49061,5,0.1,22,1.8,-0.336841,0.529297,0.500052,-0.218995,-0.372744,0.000362098,0.382483,0.959098,-0.000625849,0.00755815,0.614248,5,0.1,23,1.8,-3.54191,-2.75669,0.861333,0.088352,0.866026,0.194341,-0.000357628,0,-0.0472963,0.0260171,2.24332,5,0.1,24,1.8,-1.67055,0.0494693,1.10645,0.0290066,0.135164,0.343823,-0.0126362,-0.107864,-0.150561,0.0113027,0.178192,5,0.1,25,1.8,-3.88739,1.72539,1.10828,-0.0126541,-0.362986,0.243178,0.0119209,0.300467,-0.230134,0.0242904,0.116592,5,0.1,26,1.8,4.36465,1.42125,0.568269,-0.351143,0.43456,0.0255868,1.23453,-0.178277,-0.00914931,0.0172425,1.13267,5,0.1,27,1.8,-4.07035,-3.53606,0.824753,0.866032,-0.0270069,0.221743,-0.000238419,0.00619888,-0.0516176,0.0153145,2.24102,5,0.1,28,1.8,-3.77199,-1.13722,0.500019,-0.141644,0.838143,0.000244379,0.451446,-0.240922,0.00113249,0.010222,0.239075,5,0.1,29,1.8,-0.0433015,-1.84853,0.564497,0.864425,-0.514302,0.0162691,-0.0320101,0.531316,-0.020653,0.0178466,2.22518,5,0.1
0,1.9,-2.89761,-2.65372,0.679831,0.726307,0.135922,0.20232,0.475258,-0.308126,0.455543,0.0197556,1.77505,5,0.1,1,1.9,4.89062,1.25983,0.675659,-0.245986,-0.430143,0.000604894,-0.322074,-0.923693,-0.1407,0.0144086,0.987658,5,0.1,2,1.9,-0.259448,2.65619,0.595957,-0.177894,-0.239734,-0.000497047,0.475526,-0.233725,-0.030566,0.00968815,0.754234,5,0.1,3,1.9,-4.24834,-2.13134,0.584803,0.506048,0.213334,0.0154282,-0.462711,-0.0422746,-0.0140928,0.0120945,0.160673,5,0.1,4,1.9,1.49814,-3.62975,0.500073,-0.672766,-0.129514,0.000146404,0.405319,0.139818,-0.00116229,0.00822811,0.256505,5,0.1,5,1.9,-0.344585,0.209087,0.579741,0.243136,0.124761,0.045894,0.910705,0.783897,0.0849403,0.00891992,3.23313,5,0.1,6,1.9,-0.850917,4.15678,0.500065,0.642626,-0.490447,0.000102725,-0.42085,0.275344,-0.000979751,0.0109639,0.357071,5,0.1,7,1.9,-2.71404,2.4913,1.13479,0.0219461,0.0442401,0.336586,-0.0112206,-0.138074,-0.172898,0.0151608,0.149466,5,0.1,8,1.9,-2.83836,4.08156,1.13334,-0.0119817,-0.320335,0.223313,0.0077337,0.136465,-0.144221,0.0249413,0.113711,5,0.1,9,1.9,0.8666,-2.40227,0.598256,-0.127929,0.0065878,0.0765976,0.75449,0.244826,0.189558,0.00794353,0.408413,5,0.1,10,1.9,-1.96802,-5.61476,0.581731,-0.230291,-0.265988,0.0206506,-0.10182,0.116974,-0.00905991,0.00782786,0.0994467,5,0.1,11,1.9,-1.42009,-1.98879,0.626971,-0.768155,-0.109049,-0.0146801,-0.0231043,0.0711232,0.023663,0.011273,1.64027,5,0.1,12,1.9,3.51245,-5.41061,0.615683,0.268611,0.0710852,-0.0177313,-0.118166,-0.321239,0.00780076,0.00878293,0.21798,5,0.1,13,1.9,-3.78972,3.9769,1.14163,0.155028,-0.188033,0.235596,0.102982,0.0699759,-0.103556,0.0132487,0.108317,5,0.1,14,1.9,0.448282,0.0996956,1.1428,0.00154218,0.00831075,0.186531,-0.00236556,-0.177734,-0.286303,0.0213292,3.98354,5,0.1,15,1.9,-2.28911,1.96044,0.639965,0.866026,0.165585,0.0106892,0,-0.00932068,-0.000596046,0.00997598,2.25417,5,0.1,16,1.9,0.634308,-4.43924,0.593047,0.117469,0.58765,0.00705514,-0.107445,-0.798732,-0.0064224,0.0116974,0.246772,5,0.1,17,1.9,0.939766,-2.61215,0.500076,0.0408322,0.179411,3.59491e-05,0.151716,-0.340596,-0.000998378,0.0122163,0.213296,5,0.1,18,1.9,1.75348,-0.468571,0.576349,-0.594763,-0.116832,0.0208158,-0.851624,0.221979,-0.0113249,0.0132311,1.69243,5,0.1,19,1.9,1.77441,-2.46408,0.583362,-0.403249,0.288711,0.0156304,-0.207901,-0.85783,-0.0103116,0.0171729,0.186392,5,0.1,20,1.9,2.22807,1.99865,0.576756,-0.865865,0.0128441,0.0144183,0.0064373,-0.206426,-0.00147894,0.0236625,2.6294,5,0.1,21,1.9,-3.84602,-5.40449,0.598426,0.138618,0.0120074,0.00188332,0.258088,0.484467,-0.00235438,0.0326432,3.49061,5,0.1,22,1.9,-0.356646,0.497656,0.500083,-0.175651,-0.253443,0.000229012,0.469903,1.35927,-0.00183657,0.00755815,0.614248,5,0.1,23,1.9,-3.53305,-2.67008,0.880607,0.0891581,0.866026,0.191633,0.0109076,0,-0.0180304,0.0260171,2.24332,5,0.1,24,1.9,-1.66772,0.062324,1.14029,0.02755,0.120842,0.334391,-0.0168979,-0.173127,-0.0604466,0.0113027,0.178192,5,0.1,25,1.9,-3.88861,1.69034,1.13162,-0.0117186,-0.340067,0.225098,0.00749528,0.179596,-0.145398,0.0242904,0.116592,5,0.1,26,1.9,4.3355,1.46386,0.570784,-0.234267,0.417622,0.0247132,1.08343,-0.175059,-0.00920147,0.0172425,1.13267,5,0.1,27,1.9,-3.98375,-3.53874,0.846756,0.866025,-0.0266619,0.218861,1.49012e-05,0.00223517,-0.0187866,0.0153145,2.24102,5,0.1,28,1.9,-3.78399,-1.05479,0.500046,-0.0992324,0.808147,0.000272039,0.394151,-0.373513,-0.000435859,0.010222,0.239075,5,0.1,29,1.9,0.043126,-1.89678,0.566028,0.864896,-0.447083,0.014422,0.0161979,0.756137,-0.0167973,0.0178466,2.22518,5,0.1
0,2,-2.82275,-2.64169,0.702261,0.768244,0.104785,0.24489,0.316143,-0.309587,0.373244,0.0208588,1.34056,5,0.1,1,2,4.86457,1.21261,0.675057,-0.273049,-0.50942,-0.0121698,-0.20504,-0.632405,-0.112444,0.0141129,0.722127,5,0.1,2,2,-0.274876,2.6311,0.595757,-0.131046,-0.260943,-0.00347793,0.453368,-0.172734,-0.0279546,0.013116,0.701615,5,0.1,3,2,-4.20005,-2.11022,0.586275,0.459576,0.208551,0.0140131,-0.477314,-0.0627041,-0.0145435,0.00981003,0.112277,5,0.1,4,2,1.43297,-3.64201,0.500082,-0.629321,-0.115788,2.98023e-05,0.479281,0.137448,-0.00113249,0.0084855,0.173143,5,0.1,5,2,-0.315709,0.225734,0.584735,0.333105,0.209454,0.0536576,0.836775,0.861049,0.0653863,0.00895882,2.81581,5,0.1,6,2,-0.788824,4.10918,0.50007,0.598183,-0.460613,7.45058e-06,-0.482678,0.333071,-0.00089407,0.00997054,0.240916,5,0.1,7,2,-2.71191,2.49505,1.16749,0.0206292,0.0309527,0.316349,-0.0154972,-0.125766,-0.237823,0.0111982,0.253813,5,0.1,8,2,-2.83952,4.05017,1.155,-0.0112712,-0.307536,0.210005,0.00715256,0.134945,-0.132143,0.0225844,0.0722993,5,0.1,9,2,0.857064,-2.4,0.606844,-0.0675589,0.0422716,0.0947192,0.467896,0.451565,0.16275,0.0112382,0.312433,5,0.1,10,2,-1.99147,-5.64074,0.583748,-0.237566,-0.253272,0.0196651,-0.0333786,0.145674,-0.0113249,0.00828098,0.10594,5,0.1,11,2,-1.49672,-2,0.625617,-0.760841,-0.121462,-0.012444,0.191033,-0.298977,0.0213385,0.00810463,1.31161,5,0.1,12,2,3.53869,-5.405,0.61395,0.255764,0.0424385,-0.016883,-0.147343,-0.249624,0.00971556,0.0126277,0.421387,5,0.1,13,2,-3.77377,3.95865,1.16465,0.163007,-0.175226,0.224334,0.0492334,0.180006,-0.129104,0.0111345,0.114911,5,0.1,14,2,0.448425,0.0998533,1.16004,0.00130981,-0.00323355,0.158486,-0.00226498,-0.062082,-0.275433,0.0176877,3.99194,5,0.1,15,2,-2.2025,1.97692,0.641029,0.866026,0.163758,0.0105724,0,-0.0342727,-0.00223517,0.0131075,2.25483,5,0.1,16,2,0.645518,-4.38461,0.593721,0.106679,0.504303,0.00641048,-0.110775,-0.845194,-0.00664592,0.00922466,0.201894,5,0.1,17,2,0.944535,-2.59578,0.500075,0.0537351,0.149262,-5.21541e-05,0.103503,-0.269055,-0.000745058,0.0159058,0.357232,5,0.1,18,2,1.68993,-0.479093,0.578371,-0.67316,-0.0932217,0.0195771,-0.664413,0.244543,-0.0138879,0.0119105,0.147779,5,0.1,19,2,1.73333,-2.43933,0.584872,-0.415188,0.208241,0.0145331,-0.0210404,-0.746846,-0.0119805,0.0140676,0.123024,5,0.1,20,2,2.14157,1.99904,0.578183,-0.863457,-0.0033021,0.014028,0.0516176,-0.110388,-0.00652671,0.0202959,2.66636,5,0.1,21,2,-3.83056,-5.4,0.598602,0.17252,0.0859857,0.00163913,0.381231,0.962019,-0.002563,0.0299242,3.03839,5,0.1,22,2,-0.371817,0.479308,0.500096,-0.127602,-0.112855,2.83122e-05,0.479668,1.4005,-0.00199676,0.00788274,0.384046,5,0.1,23,2,-3.52409,-2.58348,0.899654,0.0895739,0.866026,0.188825,-0.00631809,0,-0.0460744,0.026092,2.24453,5,0.1,24,2,-1.66506,0.0734725,1.17343,0.0255674,0.101547,0.327885,-0.0230074,-0.208151,-0.0858903,0.0111932,0.301949,5,0.1,25,2,-3.88974,1.65718,1.15345,-0.0110269,-0.323319,0.211683,0.00691414,0.171363,-0.133216,0.0217926,0.0728893,5,0.1,26,2,4.31712,1.50465,0.573203,-0.137532,0.39711,0.0236005,0.83971,-0.245035,-0.0136793,0.0166007,3.74884,5,0.1,27,2,-3.89715,-3.54139,0.868517,0.866026,-0.0262916,0.215803,0,0.00619888,-0.0514388,0.0153815,2.24259,5,0.1,28,2,-3.79205,-0.976159,0.500069,-0.0632405,0.761181,0.000183284,0.324249,-0.573903,-0.0012219,0.0128306,0.408869,5,0.1,29,2,0.129636,-1.9377,0.567389,0.864501,-0.372022,0.0128239,-0.0304806,0.712574,-0.0155866,0.0144237,2.30624,5,0.1
0,2.1,-2.74417,-2.63275,0.72866,0.803821,0.0742581,0.282911,0.343949,-0.296339,0.363257,0.0208588,1.34056,5,0.1,1,2.1,4.83625,1.15861,0.673299,-0.292708,-0.568761,-0.0227033,-0.1719,-0.521183,-0.0956692,0.0141129,0.722127,5,0.1,2,2.1,-0.285742,2.60409,0.595268,-0.0868766,-0.279445,-0.00628568,0.417056,-0.177979,-0.0271276,0.013116,0.701615,5,0.1,3,2.1,-4.15634,-2.08975,0.587608,0.415751,0.200348,0.0126778,-0.411898,-0.103831,-0.0125505,0.00981003,0.112277,5,0.1,4,2.1,1.3723,-3.65294,0.50008,-0.584976,-0.103237,-6.35162e-05,0.426702,0.116691,-0.000737607,0.0084855,0.173143,5,0.1,5,2.1,-0.278469,0.251957,0.59036,0.408579,0.322259,0.0581582,0.649915,1.29914,0.0247844,0.00895882,2.81581,5,0.1,6,2.1,-0.731281,4.06469,0.500067,0.553597,-0.429824,-6.49132e-05,-0.426933,0.29701,-0.000562519,0.00997054,0.240916,5,0.1,7,2.1,-2.70993,2.49755,1.19787,0.0189509,0.0193704,0.290598,-0.0181645,-0.104293,-0.278547,0.0111982,0.253813,5,0.1,8,2.1,-2.84061,4.02023,1.17541,-0.0106644,-0.289996,0.198773,0.00546873,0.21565,-0.101589,0.0225844,0.0722993,5,0.1,9,2.1,0.852064,-2.39319,0.617237,-0.0376442,0.0961285,0.113807,0.155833,0.589624,0.203371,0.0112382,0.312433,5,0.1,10,2.1,-2.01506,-5.66544,0.585666,-0.23124,-0.241341,0.0187379,0.150666,0.105381,-0.00819191,0.00828098,0.10594,5,0.1,11,2.1,-1.57188,-2.01441,0.624472,-0.741969,-0.172742,-0.0105068,0.2129,-0.664353,0.0176802,0.00810463,1.31161,5,0.1,12,2.1,3.56356,-5.40195,0.612308,0.241748,0.0192329,-0.0159589,-0.140697,-0.205517,0.0092797,0.0126277,0.421387,5,0.1,13,2.1,-3.75719,3.94218,1.18653,0.168884,-0.152849,0.213761,0.0571609,0.260234,-0.0934079,0.0111345,0.114911,5,0.1,14,2.1,0.448545,0.0993218,1.17459,0.00110129,-0.00648595,0.133151,-0.00192598,-0.00739796,-0.234,0.0176877,3.99194,5,0.1,15,2.1,-2.1159,1.9932,0.64208,0.866026,0.162128,0.0104656,0,-0.00812113,-0.000540167,0.0131075,2.25483,5,0.1,16,2.1,0.655665,-4.33843,0.59433,0.0965083,0.420272,0.00580028,-0.0955909,-0.786722,-0.00573695,0.00922466,0.201894,5,0.1,17,2.1,0.950397,-2.58175,0.500067,0.0631134,0.135054,-0.00011269,0.0807159,-0.0413954,-0.000461936,0.0159058,0.357232,5,0.1,18,2.1,1.62017,-0.487158,0.580274,-0.713455,-0.0678924,0.0185915,-0.149675,0.256104,-0.00711158,0.0119105,0.147779,5,0.1,19,2.1,1.69178,-2.42201,0.586268,-0.414868,0.14046,0.0134184,0.0402555,-0.608236,-0.0107251,0.0140676,0.123024,5,0.1,20,2.1,2.05526,1.99816,0.579551,-0.863888,-0.0133794,0.0133171,-0.0242516,-0.057742,-0.00793859,0.0202959,2.66636,5,0.1,21,2.1,-3.81108,-5.38551,0.598754,0.219362,0.211913,0.00139428,0.516653,1.45587,-0.00235066,0.0299242,3.03839,5,0.1,22,2.1,-0.382405,0.474985,0.50009,-0.0863013,0.02508,-0.00012517,0.351161,1.3222,-0.00110269,0.00788274,0.384046,5,0.1,23,2.1,-3.51514,-2.49688,0.918383,0.0897802,0.866026,0.18624,0.00500679,0,-0.0165924,0.026092,2.24453,5,0.1,24,2.1,-1.66262,0.0825508,1.20585,0.0232121,0.0797888,0.320747,-0.0243112,-0.222046,-0.0713244,0.0111932,0.301949,5,0.1,25,2.1,-3.89082,1.62581,1.17403,-0.0104394,-0.302911,0.20036,0.00528991,0.237823,-0.102416,0.0217926,0.0728893,5,0.1,26,2.1,4.30746,1.54314,0.575495,-0.0584908,0.372536,0.0222179,0.67398,-0.255175,-0.0144951,0.0166007,3.74884,5,0.1,27,2.1,-3.81054,-3.544,0.889927,0.866026,-0.025947,0.212937,0,0.00222027,-0.0183992,0.0153815,2.24259,5,0.1,28,2.1,-3.79686,-0.902593,0.500082,-0.0341814,0.712448,6.49132e-05,0.251278,-0.433639,-0.00112876,0.0128306,0.408869,5,0.1,29,2.1,0.215906,-1.97163,0.568571,0.859803,-0.309255,0.0106027,-0.0953238,0.551417,-0.0274032,0.0144237,2.30624,5,0.1
0,2.2,-2.66236,-2.62675,0.75859,0.828308,0.0463068,0.313483,0.109792,-0.25928,0.231445,0.0165373,1.03383,5,0.1,1,2.2,4.80629,1.09953,0.670595,-0.304699,-0.608119,-0.0308797,-0.0572205,-0.243783,-0.0661612,0.0144703,0.502353,5,0.1,2,2.2,-0.292488,2.57537,0.594512,-0.0496984,-0.293255,-0.00872016,0.31884,-0.0849962,-0.020802,0.00892949,0.644148,5,0.1,3,2.2,-4.1168,-2.07031,0.588814,0.375032,0.187421,0.0114366,-0.411034,-0.156045,-0.0125468,0.0103186,0.160664,5,0.1,4,2.2,1.31598,-3.6627,0.500071,-0.54076,-0.0919163,-0.000120699,0.470757,0.111938,-0.00038743,0.0113524,0.149982,5,0.1,5,2.2,-0.234822,0.290752,0.596234,0.459369,0.452513,0.0586808,0.351489,1.23417,-0.0138283,0.0102473,2.44812,5,0.1,6,2.2,-0.678083,4.02323,0.500058,0.509776,-0.398791,-0.000107288,-0.461817,0.33319,-0.000298023,0.00985349,0.248456,5,0.1,7,2.2,-2.70813,2.49901,1.22546,0.0169933,0.0103295,0.260487,-0.0212193,-0.0759363,-0.323832,0.0128725,0.248083,5,0.1,8,2.2,-2.84165,3.99244,1.19477,-0.0100911,-0.264555,0.188136,0.00619888,0.292182,-0.1176,0.0241747,0.213352,5,0.1,9,2.2,0.848736,-2.38065,0.629596,-0.0318006,0.153923,0.132696,-0.0185072,0.53978,0.163078,0.00983044,0.250762,5,0.1,10,2.2,-2.03719,-5.68903,0.587497,-0.209218,-0.230074,0.0178635,0.280976,0.128746,-0.00998378,0.00784059,0.1926,5,0.1,11,2.2,-1.6448,-2.03518,0.623506,-0.713849,-0.243378,-0.00886023,0.367165,-0.701189,0.0154972,0.00839605,1.01353,5,0.1,12,2.2,3.58699,-5.40093,0.610762,0.226331,0.00268221,-0.0149414,-0.172734,-0.120401,0.0113845,0.0112123,0.788505,5,0.1,13,2.2,-3.74007,3.92827,1.20742,0.172561,-0.124532,0.203776,0.00858307,0.299692,-0.113904,0.0102625,0.322464,5,0.1,14,2.2,0.448646,0.0986963,1.18678,0.000920892,-0.00551604,0.11121,-0.00171363,0.0231937,-0.206828,0.0228938,3.98957,5,0.1,15,2.2,-2.0293,2.00935,0.643122,0.866026,0.160456,0.0103563,-5.96046e-05,-0.0323057,-0.00208616,0.00968247,2.25544,5,0.1,16,2.2,0.664843,-4.3,0.594882,0.0870585,0.351906,0.0052318,-0.095427,-0.580072,-0.00569224,0.0128583,0.195737,5,0.1,17,2.2,0.957051,-2.56826,0.500054,0.0693262,0.136334,-0.000144541,0.0413954,0.0466108,-0.000208616,0.0123252,0.277832,5,0.1,18,2.2,1.54886,-0.492688,0.5821,-0.704998,-0.0430405,0.0179321,0.307918,0.236422,-0.00700355,0.0109621,0.13152,5,0.1,19,2.2,1.65068,-2.41077,0.587556,-0.405043,0.0865936,0.0123173,0.164211,-0.469685,-0.0115335,0.019996,0.16661,5,0.1,20,2.2,1.96885,1.99682,0.580839,-0.862858,-0.0102848,0.0123993,0.0634193,0.131845,-0.0105798,0.0209952,2.59508,5,0.1,21,2.2,-3.7866,-5.35691,0.598882,0.269097,0.359511,0.00116825,0.449181,1.42002,-0.00220537,0.031103,2.60326,5,0.1,22,2.2,-0.389459,0.483732,0.500074,-0.0564642,0.145454,-0.000199676,0.249803,1.05998,-0.00038743,0.00651789,0.356797,5,0.1,23,2.2,-3.50615,-2.41027,0.936899,0.0896454,0.866026,0.183626,-0.0115633,0,-0.0434518,0.0226654,2.24574,5,0.1,24,2.2,-1.66042,0.0894303,1.23749,0.0206709,0.0580067,0.311184,-0.0265837,-0.209857,-0.129879,0.0129565,0.268943,5,0.1,25,2.2,-3.89183,1.59683,1.19354,-0.00988245,-0.275683,0.189635,0.00619888,0.306427,-0.118554,0.0230416,0.213654,5,0.1,26,2.2,4.3043,1.57905,0.577639,-0.0121355,0.344649,0.0206172,0.226259,-0.308156,-0.0179112,0.0163217,3.57701,5,0.1,27,2.2,-3.72394,-3.54658,0.911099,0.866026,-0.0255883,0.209983,0,0.00607967,-0.0495911,0.0170869,2.24409,5,0.1,28,2.2,-3.79918,-0.833505,0.500083,-0.0136793,0.668818,-3.72529e-05,0.157595,-0.462443,-0.000923872,0.00966686,0.845352,5,0.1,29,2.2,0.301091,-2,0.569484,0.840151,-0.259954,0.00760108,-0.318736,0.443697,-0.0315309,0.0133037,2.59186,5,0.1
0,2.3,-2.57891,-2.6229,0.7903,0.840355,0.0351276,0.313537,0.0902712,0.00931323,-0.199761,0.0165373,1.03383,5,0.1,1,2.3,4.77555,1.03758,0.667196,-0.309668,-0.629365,-0.0368451,-0.0291169,-0.154544,-0.0511594,0.0144703,0.502353,5,0.1,2,2.3,-0.295969,2.54561,0.593539,-0.0214984,-0.301831,-0.0107049,0.225009,-0.0712425,-0.0180714,0.00892949,0.644148,5,0.1,3,2.3,-4.08104,-2.05251,0.589904,0.342531,0.167191,0.0104445,-0.26086,-0.241354,-0.00796095,0.0103186,0.160664,5,0.1,4,2.3,1.26411,-3.67152,0.500057,-0.49741,-0.0862226,-0.000143237,0.412188,0.0144243,-8.19564e-05,0.0113524,0.149982,5,0.1,5,2.3,-0.187245,0.34253,0.602009,0.490429,0.584607,0.0565618,0.248082,1.32957,-0.0289455,0.0102473,2.44812,5,0.1,6,2.3,-0.629277,3.98476,0.500046,0.467332,-0.372538,-0.0001234,-0.402022,0.213698,-4.09782e-05,0.00985349,0.248456,5,0.1,7,2.3,-2.70654,2.49971,1.24989,0.0148747,0.00413395,0.228114,-0.0212044,-0.0486821,-0.324242,0.0128725,0.248083,5,0.1,8,2.3,-2.84263,3.96764,1.21297,-0.00942014,-0.229717,0.175445,0.00734627,0.393853,-0.138298,0.0241747,0.213352,5,0.1,9,2.3,0.845326,-2.36278,0.643816,-0.0375084,0.201106,0.152547,-0.0849552,0.394851,0.215054,0.00983044,0.250762,5,0.1,10,2.3,-2.05653,-5.71136,0.589232,-0.175877,-0.216224,0.0167893,0.373721,0.151724,-0.0117645,0.00784059,0.1926,5,0.1,11,2.3,-1.71416,-2.06328,0.622692,-0.671137,-0.31998,-0.00747256,0.492074,-0.783578,0.0124946,0.00839605,1.01353,5,0.1,12,2.3,3.60872,-5.40124,0.609327,0.207906,-0.00810921,-0.0137266,-0.197202,-0.0701547,0.0130087,0.0112123,0.788505,5,0.1,13,2.3,-3.72257,3.91736,1.22716,0.178888,-0.0936199,0.190332,0.0982285,0.310734,-0.15536,0.0102625,0.322464,5,0.1,14,2.3,0.44873,0.0982692,1.19695,0.000768807,-0.00296556,0.092853,-0.00135601,0.0267876,-0.163518,0.0228938,3.98957,5,0.1,15,2.3,-1.9427,2.0253,0.644152,0.866025,0.158998,0.0102622,1.49012e-05,-0.00651181,-0.000417233,0.00968247,2.25544,5,0.1,16,2.3,0.673259,-4.26723,0.595379,0.0828057,0.307585,0.0047124,-0.00198558,-0.332952,-0.00483915,0.0128583,0.195737,5,0.1,17,2.3,0.964041,-2.55398,0.500039,0.0691129,0.152578,-0.000147615,-0.0401586,0.244901,0.000122935,0.0123252,0.277832,5,0.1,18,2.3,1.48004,-0.495874,0.583855,-0.66986,-0.0213663,0.0171446,0.405036,0.195637,-0.00908598,0.0109621,0.13152,5,0.1,19,2.3,1.61079,-2.40423,0.589018,-0.394259,0.0464614,0.0193224,0.0760332,-0.336692,0.133228,0.019996,0.16661,5,0.1,20,2.3,1.88262,1.99665,0.582026,-0.86328,0.0106003,0.0113341,-0.0302419,0.342667,-0.010889,0.0209952,2.59508,5,0.1,21,2.3,-3.75733,-5.31351,0.598988,0.316744,0.509872,0.00096662,0.47186,1.5077,-0.00184402,0.031103,2.60326,5,0.1,22,2.3,-0.393992,0.503138,0.500053,-0.0354735,0.238001,-0.000208616,0.173299,0.780376,0.000156462,0.00651789,0.356797,5,0.1,23,2.3,-3.49721,-2.32367,0.955119,0.0893433,0.866026,0.181256,0.000223517,0,-0.0146739,0.0226654,2.24574,5,0.1,24,2.3,-1.65849,0.0941772,1.26787,0.0180071,0.037107,0.29544,-0.0266954,-0.199692,-0.187829,0.0129565,0.268943,5,0.1,25,2.3,-3.89279,1.57099,1.21188,-0.00921413,-0.239382,0.176842,0.00727177,0.408791,-0.139408,0.0230416,0.213654,5,0.1,26,2.3,4.3036,1.61203,0.579615,-0.0106096,0.315528,0.0189207,-0.278592,-0.28266,-0.0165254,0.0163217,3.57701,5,0.1,27,2.3,-3.63734,-3.54912,0.931934,0.866026,-0.0252504,0.207249,0,0.00216067,-0.0172928,0.0170869,2.24409,5,0.1,28,2.3,-3.79985,-0.768713,0.500649,-0.00067018,0.628565,0.0161882,0.100031,-0.369258,0.289205,0.00966686,0.845352,5,0.1,29,2.3,0.383265,-2.02345,0.569915,0.800619,-0.206421,-0.000409968,-0.480089,0.603288,-0.117205,0.0133037,2.59186,5,0.1
0,2.4,-2.49473,-2.61908,0.820153,0.839484,0.0434458,0.279166,-0.135541,0.136137,-0.461936,0.0108439,0.504662,5,0.1,1,2.4,4.74457,0.974196,0.663294,-0.308347,-0.63463,-0.040786,0.0638962,0.066638,-0.0264049,0.0170559,0.422515,5,0.1,2,2.4,-0.297266,2.51519,0.592388,-0.00737458,-0.304931,-0.0121951,0.0508428,0.0195503,-0.0111759,0.0133889,0.572762,5,0.1,3,2.4,-4.04799,-2.03709,0.590912,0.319052,0.140482,0.00972897,-0.225306,-0.286698,-0.00688434,0.0106324,0.126793,5,0.1,4,2.4,1.21644,-3.68015,0.500043,-0.455624,-0.0868201,-0.000140071,0.434577,-0.0169277,8.9407e-05,0.0144162,0.184244,5,0.1,5,2.4,-0.137277,0.407269,0.607493,0.505421,0.705007,0.052844,0.0377524,1.0224,-0.0455081,0.00936492,2.21458,5,0.1,6,2.4,-0.584555,3.94853,0.500034,0.426838,-0.352281,-0.000119209,-0.418216,0.207305,0.000149012,0.00981465,0.198593,5,0.1,7,2.4,-2.70515,2.49992,1.27108,0.0127494,0.000441074,0.195578,-0.0213385,-0.0259876,-0.326574,0.00886446,0.494898,5,0.1,8,2.4,-2.84353,3.94673,1.22977,-0.00860095,-0.187743,0.160164,0.00882149,0.436664,-0.168383,0.0233699,0.4137,5,0.1,9,2.4,0.841113,-2.34099,0.660104,-0.0469118,0.231487,0.17245,-0.0950396,0.207543,0.169307,0.0093301,0.234012,5,0.1,10,2.4,-2.07217,-5.73217,0.590847,-0.136656,-0.199199,0.0154689,0.401139,0.190973,-0.0148416,0.00954697,0.411372,5,0.1,11,2.4,-1.77857,-2.09902,0.622004,-0.614786,-0.391954,-0.00632107,0.636518,-0.621796,0.0107288,0.0101691,0.832132,5,0.1,12,2.4,3.62848,-5.40217,0.608023,0.1867,-0.0079155,-0.0123277,-0.227451,0.0836849,0.0150204,0.0088147,3.64342,5,0.1,13,2.4,-3.70418,3.90951,1.24535,0.18878,-0.0637293,0.172701,0.0851154,0.281692,-0.196755,0.0125416,0.293108,5,0.1,14,2.4,0.448801,0.0981055,1.20547,0.000645965,-0.000338443,0.077942,-0.00114739,0.0249781,-0.13715,0.0173671,3.98873,5,0.1,15,2.4,-1.85609,2.04114,0.645174,0.866026,0.157493,0.0101656,-5.96046e-05,-0.0303984,-0.00196695,0.0132295,2.25599,5,0.1,16,2.4,0.6816,-4.23791,0.595826,0.0844821,0.280619,0.00423789,0.026077,-0.226736,-0.00476837,0.00912042,0.487233,5,0.1,17,2.4,0.970655,-2.53739,0.500025,0.0623107,0.17947,-0.00012517,-0.0912249,0.267744,0.000298023,0.0139667,0.218252,5,0.1,18,2.4,1.4153,-0.49711,0.585519,-0.622424,-0.00413433,0.0160635,0.549138,0.148252,-0.012815,0.0133608,0.120837,5,0.1,19,2.4,1.57176,-2.40107,0.59173,-0.385618,0.0185311,0.0356942,0.114322,-0.225425,0.180006,0.023512,0.099157,5,0.1,20,2.4,1.79625,2,0.583103,-0.862274,0.0617146,0.0101954,0.0749826,0.657201,-0.0120103,0.020395,2.43543,5,0.1,21,2.4,-3.72347,-5.25538,0.599076,0.358021,0.64739,0.000795722,0.330925,1.18542,-0.00160933,0.0303972,2.2985,5,0.1,22,2.4,-0.396777,0.530308,0.500033,-0.0211924,0.299953,-0.000177324,0.115156,0.453532,0.000476837,0.0194754,0.493431,5,0.1,23,2.4,-3.48829,-2.23707,0.973147,0.0887752,0.866026,0.178853,-0.0151396,0,-0.0410676,0.0241739,2.26038,5,0.1,24,2.4,-1.65682,0.0969609,1.29636,0.0153333,0.0194158,0.273225,-0.0267029,-0.149101,-0.257611,0.0116118,1.90965,5,0.1,25,2.4,-3.89367,1.54919,1.22882,-0.00841022,-0.1959,0.161436,0.00882149,0.451863,-0.169754,0.0238174,0.413971,5,0.1,26,2.4,4.3,1.64216,0.581424,-0.0720024,0.28671,0.0172287,-0.908136,-0.299335,-0.0176728,0.0145677,3.13384,5,0.1,27,2.4,-3.55073,-3.55163,0.952544,0.866026,-0.0249028,0.204435,0,0.00584126,-0.0476539,0.0171879,2.24553,5,0.1,28,2.4,-3.79952,-0.707727,0.503947,0.00603199,0.590421,0.0513613,0.0337362,-0.412375,0.386119,0.00972128,0.703281,5,0.1,29,2.4,0.460608,-2.04098,0.569225,0.742981,-0.143522,-0.0138,-0.675991,0.635982,-0.14168,0.0145621,1.99445,5,0.1
0,2.5,-2.41162,-2.61395,0.845645,0.820595,0.0597473,0.22979,-0.261471,0.177696,-0.515409,0.0108439,0.504662,5,0.1,1,2.5,4.71389,0.911092,0.659097,-0.306264,-0.626648,-0.0429889,-0.00169873,0.11472,-0.0160486,0.0170559,0.422515,5,0.1,2,2.5,-0.297971,2.48479,0.591115,-0.00979435,-0.303014,-0.0132122,-0.12891,0.0311136,-0.00851229,0.0133889,0.572762,5,0.1,3,2.5,-4.01708,-2.02452,0.591854,0.300198,0.11075,0.00915304,-0.166312,-0.301927,-0.0050813,0.0106324,0.126793,5,0.1,4,2.5,1.1727,-3.68915,0.500029,-0.422202,-0.0949968,-0.000123214,0.261627,-0.127837,0.000234693,0.0144162,0.184244,5,0.1,5,2.5,-0.0865341,0.482519,0.612551,0.508984,0.795415,0.0483212,0.0114159,0.749592,-0.0457726,0.00936492,2.21458,5,0.1,6,2.5,-0.543832,3.91462,0.500023,0.388597,-0.323113,-0.000100117,-0.359107,0.365511,0.000227243,0.00981465,0.198593,5,0.1,7,2.5,-2.70398,2.49975,1.28904,0.0106949,-0.00434369,0.164106,-0.0197738,-0.0565052,-0.303239,0.00886446,0.494898,5,0.1,8,2.5,-2.84435,3.93015,1.245,-0.00780001,-0.143955,0.144914,0.00745058,0.432014,-0.141524,0.0233699,0.4137,5,0.1,9,2.5,0.835859,-2.31716,0.678374,-0.0587819,0.241711,0.194147,-0.131875,0.00368059,0.241183,0.0093301,0.234012,5,0.1,10,2.5,-2.08386,-5.75113,0.592319,-0.0973485,-0.179978,0.0139756,0.377744,0.195503,-0.0151843,0.00954697,0.411372,5,0.1,11,2.5,-1.83641,-2.14101,0.62133,-0.538014,-0.444489,-0.00794875,0.87522,-0.413746,-0.0373609,0.0101691,0.832132,5,0.1,12,2.5,3.64598,-5.40264,0.606867,0.163127,0.00202656,-0.010771,-0.24271,0.275135,0.0160299,0.0088147,3.64342,5,0.1,13,2.5,-3.68479,3.90446,1.26163,0.199359,-0.0384264,0.152957,0.111148,0.222594,-0.198931,0.0125416,0.293108,5,0.1,14,2.5,0.44886,0.0981807,1.21264,0.000547664,0.00168992,0.0661779,-0.000843778,0.0158423,-0.101328,0.0173671,3.98873,5,0.1,15,2.5,-1.76949,2.05681,0.646185,0.866025,0.156186,0.010081,1.49012e-05,-0.00527501,-0.000342727,0.0132295,2.25599,5,0.1,16,2.5,0.69042,-4.21041,0.596228,0.0938299,0.274146,0.00380576,0.14149,0.0567734,-0.00400096,0.00912042,0.487233,5,0.1,17,2.5,0.976255,-2.51822,0.500014,0.0482209,0.202576,-9.18284e-05,-0.179149,0.186011,0.000357628,0.0139667,0.218252,5,0.1,18,2.5,1.35558,-0.496804,0.587068,-0.573761,0.00993726,0.0149737,0.446819,0.130223,-0.00967458,0.0133608,0.120837,5,0.1,19,2.5,1.53371,-2.4002,0.596283,-0.375554,0.000301376,0.0558989,0.102758,-0.142291,0.211775,0.023512,0.099157,5,0.1,20,2.5,1.7101,2.01021,0.584067,-0.862688,0.148151,0.00910349,-0.036478,1.00173,-0.0101179,0.020395,2.43543,5,0.1,21,2.5,-3.68595,-5.18496,0.599148,0.392264,0.757402,0.000653882,0.32559,0.967026,-0.00125542,0.0303972,2.2985,5,0.1,22,2.5,-0.398393,0.561246,0.500018,-0.0118118,0.307011,-0.000125729,0.0743866,-0.254549,0.000528991,0.0194754,0.493431,5,0.1,23,2.5,-3.47946,-2.15051,0.990899,0.0881251,0.864471,0.176654,-0.00305474,-0.0442266,-0.0133663,0.0241739,2.26038,5,0.1,24,2.5,-1.65542,0.0979694,1.3224,0.0127818,0.000332866,0.24733,-0.0243783,-0.177411,-0.263214,0.0116118,1.90965,5,0.1,25,2.5,-3.89447,1.53187,1.24417,-0.00761151,-0.150584,0.146063,0.00739098,0.447236,-0.142664,0.0238174,0.413971,5,0.1,26,2.5,4.28696,1.66942,0.583063,-0.198931,0.25914,0.0155987,-1.51789,-0.259779,-0.0153929,0.0145677,3.13384,5,0.1,27,2.5,-3.46413,-3.5541,0.972831,0.866026,-0.0245806,0.201818,0,0.00207126,-0.0165552,0.0171879,2.24553,5,0.1,28,2.5,-3.79877,-0.650577,0.511227,0.00839941,0.55373,0.0956663,0.000342727,-0.343196,0.472713,0.00972128,0.703281,5,0.1,29,2.5,0.531969,-2.05205,0.566951,0.687711,-0.077622,-0.0330865,-0.466377,0.662431,-0.227518,0.0145621,1.99445,5,0.1
0,2.6,-2.33121,-2.6071,0.866029,0.784117,0.0768661,0.177914,-0.479579,0.155687,-0.514001,0.0151653,0.560237,5,0.1,1,2.6,4.68328,0.849224,0.654745,-0.305164,-0.608094,-0.0437364,0.0386238,0.270665,0.00214577,0.0175188,0.289677,5,0.1,2,2.6,-0.3,2.45474,0.58976,-0.0345647,-0.296646,-0.0137895,-0.350893,0.104547,-0.00265241,0.010414,0.480661,5,0.1,3,2.6,-3.98789,-2.01494,0.592744,0.283307,0.0811636,0.0086382,-0.181794,-0.285268,-0.00557303,0.0100924,0.271129,5,0.1,4,2.6,1.13169,-3.69934,0.500018,-0.398475,-0.1091,-9.68575e-05,0.233471,-0.139952,0.000268221,0.015162,0.113351,5,0.1,5,2.6,-0.0357695,0.565138,0.617149,0.504011,0.84983,0.0435561,-0.12571,0.323892,-0.0500381,0.00912219,2.14365,5,0.1,6,2.6,-0.506754,3.88433,0.500014,0.352891,-0.281167,-7.7486e-05,-0.363797,0.463963,0.000298023,0.00934938,0.173486,5,0.1,7,2.6,-2.70301,2.49907,1.30397,0.00878572,-0.00874996,0.134879,-0.018239,-0.0237226,-0.281513,0.00848832,1.16544,5,0.1,8,2.6,-2.84509,3.91786,1.2588,-0.00706315,-0.102562,0.13102,0.00751019,0.39053,-0.139832,0.0218568,0.364506,5,0.1,9,2.6,0.829331,-2.29326,0.698955,-0.0714689,0.233561,0.216632,-0.114173,-0.159621,0.19142,0.0102762,0.20168,5,0.1,10,2.6,-2.09179,-5.76813,0.59364,-0.0623107,-0.1598,0.0124082,0.318289,0.209332,-0.0162721,0.00754961,0.361411,5,0.1,11,2.6,-1.88561,-2.18709,0.620309,-0.44409,-0.472325,-0.0127405,0.983477,-0.13423,-0.0538826,0.00851839,0.746348,5,0.1,12,2.6,3.66106,-5.4,0.605871,0.138414,0.0613451,-0.00913888,-0.249982,0.893831,0.0165105,0.00889315,3.18318,5,0.1,13,2.6,-3.66436,3.90162,1.27593,0.20839,-0.0194252,0.132805,0.058651,0.156999,-0.204384,0.0136224,0.510046,5,0.1,14,2.6,0.448911,0.0984156,1.21879,0.000471622,0.00288021,0.0571072,-0.000670552,0.00821799,-0.0824332,0.019777,3.99083,5,0.1,15,2.6,-1.68289,2.07238,0.64719,0.866026,0.154811,0.00999123,-5.96046e-05,-0.0290871,-0.00184774,0.0153824,2.25651,5,0.1,16,2.6,0.700569,-4.18251,0.596589,0.109379,0.284839,0.00341684,0.154793,0.126123,-0.0038743,0.00953199,0.384922,5,0.1,17,2.6,0.980114,-2.49722,0.500007,0.0285193,0.215328,-5.81145e-05,-0.205994,0.0641346,0.000327826,0.0152652,0.20517,5,0.1,18,2.6,1.30042,-0.495209,0.588517,-0.529185,0.0214159,0.0140101,0.460625,0.0973642,-0.0101626,0.0117467,0.106467,5,0.1,19,2.6,1.49676,-2.40076,0.602901,-0.362408,-0.0105202,0.0759199,0.171006,-0.0770092,0.179619,0.0214772,0.134686,5,0.1,20,2.6,1.62377,2.03013,0.584928,-0.861865,0.249815,0.00812262,0.0832677,0.979185,-0.00965595,0.0184652,2.27498,5,0.1,21,2.6,-3.6453,-5.10505,0.599208,0.418335,0.833368,0.000540912,0.176191,0.525236,-0.00101328,0.0312175,2.17306,5,0.1,22,2.6,-0.399256,0.5899,0.500008,-0.00595599,0.259554,-7.59959e-05,0.0443906,-0.647187,0.000476837,0.0173469,0.446296,5,0.1,23,2.6,-3.47067,-2.06446,1.00847,0.0872791,0.854385,0.174388,-0.0175238,-0.172496,-0.0393987,0.0187058,2.34142,5,0.1,24,2.6,-1.65426,0.0974039,1.34578,0.0104487,-0.00806414,0.220123,-0.0222325,0.0343509,-0.282586,0.0130166,3.68334,5,0.1,25,2.6,-3.8952,1.51899,1.25808,-0.00688434,-0.107703,0.132054,0.00727177,0.405133,-0.140846,0.0234365,0.364715,5,0.1,26,2.6,4.25923,1.69405,0.584547,-0.355804,0.233445,0.0140727,-1.53422,-0.259519,-0.0154674,0.0140437,2.67324,5,0.1,27,2.6,-3.37753,-3.55654,0.992902,0.866026,-0.0242472,0.199093,0,0.00572205,-0.0463426,0.0152909,2.24694,5,0.1,28,2.6,-3.79806,-0.59695,0.523115,0.00435114,0.518088,0.141166,-0.0855923,-0.384867,0.417203,0.0104236,0.575845,5,0.1,29,2.6,0.598506,-2.05659,0.562476,0.643311,-0.0144362,-0.0564024,-0.448555,0.586867,-0.226349,0.00706483,0.788306,5,0.1
0,2.7,-2.25497,-2.5988,0.881868,0.741959,0.0874929,0.144274,-0.394121,0.0595748,-0.189222,0.0151653,0.560237,5,0.1,1,2.7,4.65288,0.789736,0.650388,-0.303386,-0.581523,-0.0433176,0.0131726,0.278819,0.00755116,0.0175188,0.289677,5,0.1,2,2.7,-0.305676,2.42558,0.588369,-0.082544,-0.286618,-0.0139913,-0.56728,0.106126,-0.000856817,0.010414,0.480661,5,0.1,3,2.7,-3.96041,-2.00818,0.593582,0.266559,0.054555,0.00812532,-0.162542,-0.244215,-0.00497326,0.0100924,0.271129,5,0.1,4,2.7,1.09286,-3.71101,0.50001,-0.379102,-0.124492,-6.86385e-05,0.172295,-0.155553,0.000286847,0.015162,0.113351,5,0.1,5,2.7,0.0141097,0.651112,0.621268,0.494044,0.865013,0.0389457,-0.0966462,0.0404939,-0.043273,0.00912219,2.14365,5,0.1,6,2.7,-0.473165,3.85866,0.500008,0.319784,-0.231267,-5.08502e-05,-0.308791,0.522986,0.000230968,0.00934938,0.173486,5,0.1,7,2.7,-2.70222,2.49799,1.31611,0.0070665,-0.0128839,0.108361,-0.0161678,-0.0232011,-0.24911,0.00848832,1.16544,5,0.1,8,2.7,-2.84576,3.90945,1.27121,-0.00631548,-0.0668287,0.117131,0.00749528,0.321686,-0.139177,0.0218568,0.364506,5,0.1,9,2.7,0.8214,-2.27053,0.721626,-0.088772,0.222348,0.236829,-0.211924,-0.0792444,0.194442,0.0102762,0.20168,5,0.1,10,2.7,-2.09652,-5.78307,0.594799,-0.0333749,-0.138946,0.0107876,0.254333,0.207961,-0.0161566,0.00754961,0.361411,5,0.1,11,2.7,-1.92505,-2.23443,0.618476,-0.344804,-0.469162,-0.0263045,0.986136,0.184909,-0.196956,0.00851839,0.746348,5,0.1,12,2.7,3.67378,-5.38806,0.605035,0.117036,0.188033,-0.00762148,-0.183418,1.52564,0.0139885,0.00889315,3.18318,5,0.1,13,2.7,-3.64304,3.90041,1.28821,0.219315,-0.00539832,0.113263,0.137925,0.118271,-0.187457,0.0136224,0.510046,5,0.1,14,2.7,0.448955,0.0987321,1.22414,0.000416394,0.00333388,0.0503171,-0.000458211,0.00128709,-0.0563562,0.019777,3.99083,5,0.1,15,2.7,-1.59629,2.08778,0.648184,0.866025,0.153591,0.00991505,1.49012e-05,-0.00464916,-0.000283122,0.0153824,2.25651,5,0.1,16,2.7,0.712313,-4.15323,0.596919,0.125539,0.301984,0.0032709,0.157274,0.190616,0.000406057,0.00953199,0.384922,5,0.1,17,2.7,0.981897,-2.47574,0.500002,0.00696182,0.210941,-2.92435e-05,-0.217527,-0.139326,0.000238419,0.0152652,0.20517,5,0.1,18,2.7,1.24967,-0.492636,0.589866,-0.486665,0.0294848,0.0129525,0.405148,0.0636745,-0.011161,0.0117467,0.106467,5,0.1,19,2.7,1.46131,-2.40213,0.611459,-0.346701,-0.0160955,0.0955791,0.15603,-0.0362694,0.200804,0.0214772,0.134686,5,0.1,20,2.7,1.53766,2.06033,0.585697,-0.862169,0.356002,0.0072943,-0.0364482,1.08409,-0.00724196,0.0184652,2.27498,5,0.1,21,2.7,-3.6025,-5.01992,0.599257,0.437612,0.862385,0.000455137,0.182316,0.113636,-0.000726432,0.0312175,2.17306,5,0.1,22,2.7,-0.39947,0.611832,0.500003,0.00299802,0.17271,-3.55765e-05,0.123393,-1.03021,0.000327826,0.0173469,0.446296,5,0.1,23,2.7,-3.462,-1.98054,1.02578,0.0863895,0.820849,0.172279,-0.00530481,-0.368834,-0.0129491,0.0187058,2.34142,5,0.1,24,2.7,-1.65332,0.097123,1.36627,0.00830926,0.00718532,0.18856,-0.0204742,0.311924,-0.341527,0.0130166,3.68334,5,0.1,25,2.7,-3.89585,1.51013,1.27058,-0.00616051,-0.0705816,0.118064,0.00725687,0.334725,-0.140212,0.0234365,0.364715,5,0.1,26,2.7,4.21555,1.71619,0.585882,-0.519908,0.210046,0.0126766,-1.65966,-0.215627,-0.0128821,0.0140437,2.67324,5,0.1,27,2.7,-3.29093,-3.55895,1.01266,0.866026,-0.0239268,0.196518,0,0.00208616,-0.0166409,0.0152909,2.24694,5,0.1,28,2.7,-3.79814,-0.546925,0.539356,-0.00745952,0.483371,0.183499,-0.174612,-0.327319,0.408687,0.0104236,0.575845,5,0.1,29,2.7,0.659148,-2.05493,0.555766,0.55709,0.0487674,-0.0770251,-1.19615,0.648633,-0.180762,0.00706483,0.788306,5,0.1
0,2.8,-2.18281,-2.5899,0.895679,0.700104,0.0893354,0.134628,-0.46432,-0.0200272,-0.027746,0.0172391,0.402794,5,0.1,1,2.8,4.62267,0.733111,0.646112,-0.299764,-0.549331,-0.0420094,0.0710487,0.37694,0.0194609,0.0108941,0.195857,5,0.1,2,2.8,-0.316843,2.39752,0.586973,-0.140753,-0.273728,-0.0138745,-0.565603,0.158191,0.00357628,0.0101882,0.381266,5,0.1,3,2.8,-3.9346,-2.00386,0.594369,0.249219,0.0327289,0.00759512,-0.190735,-0.190616,-0.00581145,0.0135334,0.255884,5,0.1,4,2.8,1.05583,-3.72418,0.500005,-0.360891,-0.138098,-4.17233e-05,0.204802,-0.107884,0.000268221,0.0130341,0.082692,5,0.1,5,2.8,0.062925,0.737695,0.62495,0.480786,0.866026,0.0347152,-0.184454,0,-0.0421405,0.00953068,2.1623,5,0.1,6,2.8,-0.44271,3.83817,0.500004,0.289351,-0.178546,-2.98023e-05,-0.307232,0.522614,0.000149012,0.0104597,0.14061,5,0.1,7,2.8,-2.70159,2.4968,1.32575,0.00554919,-0.00834465,0.0850081,-0.0140667,0.128627,-0.218093,0.00890314,3.6243,5,0.1,8,2.8,-2.84636,3.90424,1.28222,-0.00555515,-0.0385702,0.102994,0.0077486,0.242591,-0.144303,0.0212609,0.561086,5,0.1,9,2.8,0.811437,-2.24866,0.746165,-0.110367,0.215155,0.252454,-0.20507,-0.0755787,0.10553,0.00823038,0.182353,5,0.1,10,2.8,-2.09873,-5.79592,0.595797,-0.0123322,-0.118208,0.00917614,0.163794,0.206709,-0.0160336,0.00812159,0.785804,5,0.1,11,2.8,-1.95471,-2.27998,0.614763,-0.249678,-0.437826,-0.0485152,0.904381,0.429749,-0.231504,0.0101565,0.529332,5,0.1,12,2.8,3.68464,-5.36136,0.604339,0.100702,0.346375,-0.00631511,-0.14782,1.55473,0.0122488,0.0120995,2.70012,5,0.1,13,2.8,-3.62044,3.90036,1.29863,0.232184,0.00347495,0.0951469,0.103354,0.0565052,-0.175595,0.0113511,0.768425,5,0.1,14,2.8,0.448995,0.0990634,1.22891,0.000375509,0.00321753,0.0453115,-0.000372529,-0.00325218,-0.0459552,0.0193994,3.99392,5,0.1,15,2.8,-1.50968,2.10309,0.649173,0.866026,0.152278,0.00983179,0,-0.0281334,-0.00181794,0.0142016,2.25702,5,0.1,16,2.8,0.725583,-4.12214,0.597252,0.138941,0.318468,0.00339895,0.102967,0.120163,0.00172853,0.00972056,0.346675,5,0.1,17,2.8,0.981538,-2.45559,0.500001,-0.0136644,0.189805,-1.04308e-05,-0.189453,-0.272512,0.000149012,0.0122948,0.195479,5,0.1,18,2.8,1.20304,-0.489427,0.591103,-0.445554,0.0341229,0.0117511,0.427604,0.0291318,-0.012964,0.0149504,0.458946,5,0.1,19,2.8,1.42748,-2.40387,0.62197,-0.329036,-0.0181198,0.113884,0.206113,-0.00572205,0.156134,0.0169989,0.109403,5,0.1,20,2.8,1.45142,2.10112,0.586392,-0.860119,0.456208,0.00661463,0.114977,0.876307,-0.00658631,0.0214417,2.12903,5,0.1,21,2.8,-3.558,-4.93341,0.5993,0.450218,0.866032,0.00039041,0.0510216,-0.000238419,-0.000566244,0.0301756,2.14094,5,0.1,22,2.8,-0.398499,0.623724,0.500001,0.0167243,0.0640497,-1.04308e-05,0.14244,-1.09708,0.000149012,0.0154181,0.329467,5,0.1,23,2.8,-3.4534,-1.9,1.04292,0.0853539,0.793356,0.170061,-0.0188351,-0.183046,-0.0386834,0.0211623,2.33698,5,0.1,24,2.8,-1.65259,0.1,1.38337,0.00636876,0.055863,0.153124,-0.018239,0.635758,-0.361264,0.012107,3.52977,5,0.1,25,2.8,-3.89643,1.50462,1.28168,-0.00541806,-0.0411153,0.103816,0.00739098,0.253439,-0.145376,0.0221201,0.561273,5,0.1,26,2.8,4.15565,1.73614,0.587087,-0.672555,0.18909,0.0114217,-1.32966,-0.208557,-0.012517,0.0153831,2.38088,5,0.1,27,2.8,-3.20432,-3.56133,1.0322,0.866026,-0.0235915,0.193802,0,0.00572205,-0.045836,0.0128931,2.24836,5,0.1,28,2.8,-3.8,-0.500248,0.559595,-0.03196,0.449595,0.219366,-0.305176,-0.360623,0.294119,0.0092727,0.452479,5,0.1,29,2.8,0.708187,-2.0469,0.547271,0.418426,0.11034,-0.0916839,-1.51339,0.561714,-0.109076,0.00817795,0.410252,5,0.1
0,2.9,-2.11494,-2.58114,0.9093,0.658344,0.0851195,0.140148,-0.395849,-0.0624806,0.114925,0.0172391,0.402794,5,0.1,1,2.9,4.593,0.679988,0.642008,-0.293875,-0.513489,-0.0400488,0.0598133,0.355069,0.0208654,0.0108941,0.195857,5,0.1,2,2.9,-0.333881,2.3709,0.585603,-0.200547,-0.258773,-0.0135007,-0.598935,0.14931,0.00433251,0.0101882,0.381266,5,0.1,3,2.9,-3.91061,-2.00151,0.5951,0.230824,0.0149183,0.00703484,-0.183105,-0.158429,-0.00557303,0.0135334,0.255884,5,0.1,4,2.9,1.02091,-3.73821,0.500002,-0.336101,-0.13944,-1.98372e-05,0.290215,0.0694543,0.000167638,0.0130341,0.082692,5,0.1,5,2.9,0.109846,0.824297,0.628229,0.455312,0.866026,0.0310055,-0.323762,-3.72529e-06,-0.033278,0.00953068,2.1623,5,0.1,6,2.9,-0.415065,3.82287,0.500002,0.265545,-0.128262,-1.61119e-05,-0.186719,0.476554,0.000115484,0.0104597,0.14061,5,0.1,7,2.9,-2.7011,2.49656,1.33322,0.00425391,0.00738315,0.0649584,-0.0118762,0.335112,-0.183366,0.00890314,3.6243,5,0.1,8,2.9,-2.84687,3.90153,1.29182,-0.0048168,-0.0164773,0.0892606,0.00709295,0.191882,-0.131607,0.0212609,0.561086,5,0.1,9,2.9,0.799311,-2.22734,0.77201,-0.132427,0.21269,0.264695,-0.221279,0.00815094,0.12131,0.00823038,0.182353,5,0.1,10,2.9,-2.09914,-5.80674,0.596637,0.00328459,-0.0985153,0.00764858,0.120297,0.187665,-0.0145584,0.00812159,0.785804,5,0.1,11,2.9,-1.97537,-2.32171,0.608691,-0.165915,-0.397487,-0.0731722,0.76282,0.384077,-0.24673,0.0101565,0.529332,5,0.1,12,2.9,3.69407,-5.31851,0.603764,0.0887122,0.512776,-0.00523627,-0.0976771,1.68425,0.00952929,0.0120995,2.70012,5,0.1,13,2.9,-3.59647,3.90101,1.3073,0.248744,0.00906028,0.0788057,0.200897,0.0328869,-0.152297,0.0113511,0.768425,5,0.1,14,2.9,0.449031,0.0993639,1.23325,0.000346405,0.00275075,0.0417272,-0.000229105,-0.00578072,-0.0284091,0.0193994,3.99392,5,0.1,15,2.9,-1.42308,2.11824,0.650151,0.866026,0.151108,0.00975626,0,-0.00444055,-0.000286847,0.0142016,2.25702,5,0.1,16,2.9,0.739691,-4.09011,0.597676,0.140483,0.318459,0.00571068,-0.0618584,-0.110894,0.0395551,0.00972056,0.346675,5,0.1,17,2.9,0.979249,-2.43814,0.5,-0.0317447,0.158053,-4.65661e-07,-0.16734,-0.351414,6.33299e-05,0.0122948,0.195479,5,0.1,18,2.9,1.16003,-0.485899,0.592215,-0.419657,0.0361179,0.0104936,0.132836,0.0104308,-0.0123456,0.0149504,0.458946,5,0.1,19,2.9,1.39536,-2.40566,0.633761,-0.315298,-0.0173736,0.11853,0.0913441,0.0186414,-0.048589,0.0169989,0.109403,5,0.1,20,2.9,1.36565,2.15125,0.587025,-0.857231,0.546312,0.00609905,-0.00546128,0.872791,-0.00410527,0.0214417,2.12903,5,0.1,21,2.9,-3.51261,-4.8468,0.599336,0.458034,0.866023,0.000345055,0.0786334,2.98023e-05,-0.000361353,0.0301756,2.14094,5,0.1,22,2.9,-0.396076,0.624516,0.5,0.0319277,-0.0484836,-4.65661e-07,0.154136,-1.11431,6.33299e-05,0.0154181,0.329467,5,0.1,23,2.9,-3.44493,-1.82055,1.0598,0.0843029,0.803572,0.167915,-0.00701845,0.296384,-0.0139996,0.0211623,2.33698,5,0.1,24,2.9,-1.65204,0.108488,1.3969,0.00469629,0.111328,0.117777,-0.0152215,0.481723,-0.342235,0.012107,3.52977,5,0.1,25,2.9,-3.89693,1.5017,1.29136,-0.004711,-0.0180615,0.0899792,0.00679493,0.200279,-0.13262,0.0221201,0.561273,5,0.1,26,2.9,4.08242,1.75409,0.588172,-0.784655,0.170748,0.01032,-0.887811,-0.16512,-0.00993162,0.0153831,2.38088,5,0.1,27,2.9,-3.11772,-3.56367,1.05142,0.866026,-0.0232611,0.191184,0,0.00222027,-0.0175983,0.0128931,2.24836,5,0.1,28,2.9,-3.80503,-0.456969,0.582977,-0.0708558,0.416849,0.247603,-0.442952,-0.309028,0.254504,0.0092727,0.452479,5,0.1,29,2.9,0.742564,-2.03309,0.53777,0.27072,0.165054,-0.0963567,-1.4175,0.512823,0.00944734,0.00817795,0.410252,5,0.1
0,3,-2.05114,-2.573,0.923967,0.616699,0.077188,0.153539,-0.454426,-0.0942945,0.135332,0.00690522,0.530957,5,0.1,1,3,4.56398,0.630479,0.638117,-0.285602,-0.475784,-0.0376523,0.114918,0.409275,0.0277758,0.0123663,0.131338,5,0.1,2,3,-0.356774,2.34581,0.584279,-0.255153,-0.242466,-0.0129357,-0.470698,0.182509,0.00724196,0.0101665,0.287977,5,0.1,3,3,-3.88847,-2.00071,0.595775,0.211608,0.00212789,0.00644922,-0.205159,-0.0936985,-0.00622869,0.00793278,0.411996,5,0.1,4,3,0.988884,-3.75159,0.5,-0.303109,-0.12635,-5.96046e-06,0.36782,0.182509,5.96046e-05,0.0101356,0.257717,5,0.1,5,3,0.15354,0.9109,0.631169,0.416431,0.866026,0.0278473,-0.451155,0,-0.0307858,0.0133082,2.24312,5,0.1,6,3,-0.389365,3.8123,0.5,0.2489,-0.0843048,-7.45058e-06,-0.159413,0.398278,8.9407e-05,0.0105337,0.283358,5,0.1,7,3,-2.70073,2.5,1.33885,0.00317097,0.0715673,0.048241,-0.00989437,0.928164,-0.151515,0.00867712,3.1694,5,0.1,8,3,-2.84732,3.90071,1.3001,-0.0041306,-0.0012815,0.0764638,0.00679493,0.108361,-0.12517,0.0193887,0.782753,5,0.1,9,3,0.785035,-2.20601,0.798991,-0.15208,0.213653,0.273658,-0.161201,-0.00238419,0.0453591,0.0131234,3.14145,5,0.1,10,3,-2.09845,-5.81568,0.597332,0.00780225,-0.0805974,0.00625849,-0.0408888,0.170946,-0.013262,0.0101057,1.30837,5,0.1,11,3,-1.98843,-2.35956,0.600215,-0.0983119,-0.359756,-0.0953451,0.585318,0.376344,-0.186503,0.010771,0.562534,5,0.1,12,3,3.7025,-5.25919,0.603285,0.0801623,0.667906,-0.00437647,-0.0773668,1.35422,0.00786781,0.00930509,2.39554,5,0.1,13,3,-3.57061,3.90191,1.31445,0.267696,0.00696778,0.0645041,0.158429,-0.0830889,-0.134647,0.0109576,0.676245,5,0.1,14,3,0.449065,0.099608,1.23729,0.00032559,0.00211522,0.0391603,-0.000193715,-0.00669062,-0.0247955,0.0211041,3.99643,5,0.1,15,3,-1.33648,2.13331,0.651124,0.866026,0.149822,0.00967234,0,-0.027895,-0.00178814,0.00984484,2.31768,5,0.1,16,3,0.753229,-4.05913,0.598474,0.128479,0.298131,0.0104323,-0.169367,-0.287056,0.0509918,0.010647,0.623695,5,0.1,17,3,0.975307,-2.42414,0.5,-0.0463262,0.121516,1.49012e-06,-0.121087,-0.370502,2.98023e-05,0.0142484,0.285816,5,0.1,18,3,1.11853,-0.482268,0.593202,-0.411534,0.0361703,0.00925362,0.0617504,-0.00943244,-0.0125468,0.0144952,0.828692,5,0.1,19,3,1.36425,-2.40728,0.645133,-0.306833,-0.0147521,0.106846,0.0945926,0.0321865,-0.172883,0.0160775,0.19011,5,0.1,20,3,1.28005,2.20988,0.587616,-0.85237,0.621742,0.00572652,0.139356,0.598431,-0.00366569,0.0194967,2.02961,5,0.1,21,3,-3.46655,-4.7602,0.599369,0.461411,0.866032,0.000314415,-0.0299215,-0.000238419,-0.000268221,0.0259038,2.29517,5,0.1,22,3,-0.392144,0.614334,0.5,0.0462599,-0.152054,1.49012e-06,0.127077,-0.928789,2.98023e-05,0.0183061,0.221076,5,0.1,23,3,-3.43655,-1.73854,1.0765,0.0831246,0.836769,0.165597,-0.0201464,0.30005,-0.0393987,0.0230164,2.26063,5,0.1,24,3,-1.65164,0.121823,1.40702,0.00331998,0.153429,0.0852764,-0.0123978,0.364322,-0.305176,0.011013,3.41759,5,0.1,25,3,-3.89737,1.50076,1.29971,-0.00404716,-0.00214279,0.0770837,0.00655651,0.114501,-0.126183,0.0222166,0.782968,5,0.1,26,3,4.00038,1.77037,0.589155,-0.84756,0.154886,0.00936538,-0.36931,-0.157118,-0.00947714,0.0132116,2.02618,5,0.1,27,3,-3.03112,-3.56598,1.07043,0.866026,-0.022912,0.188389,0,0.00560284,-0.0460744,0.0147556,1.8562,5,0.1,28,3,-3.81435,-0.416842,0.608836,-0.115329,0.38529,0.267561,-0.424266,-0.332415,0.133753,0.00952814,0.339929,5,0.1,29,3,0.762865,-2.01423,0.528335,0.138904,0.209582,-0.0909641,-1.20237,0.364184,0.0928938,0.0122621,0.854778,5,0.1
0,3.1,-1.99269,-2.56632,0.940368,0.544261,0.0514701,0.177307,-0.945456,-0.383854,0.306163,0.00690522,0.530957,5,0.1,1,3.1,4.53595,0.584847,0.634486,-0.275135,-0.43751,-0.0349885,0.105083,0.368997,0.0264496,0.0123663,0.131338,5,0.1,2,3.1,-0.384636,2.32243,0.58302,-0.301413,-0.225407,-0.0122346,-0.430366,0.165686,0.00714511,0.0101665,0.287977,5,0.1,3,3.1,-3.86835,-2.00094,0.596388,0.19054,-0.00596941,0.00580912,-0.217319,-0.0507832,-0.00660494,0.00793278,0.411996,5,0.1,4,3.1,0.960413,-3.76308,0.500091,-0.266291,-0.101477,0.00258498,0.369363,0.299618,0.0460297,0.0101356,0.257717,5,0.1,5,3.1,0.192614,0.997502,0.633817,0.362357,0.866025,0.0252501,-0.613466,0,-0.0224076,0.0133082,2.24312,5,0.1,6,3.1,-0.365167,3.8057,0.5,0.235808,-0.0494692,-8.3819e-07,-0.114238,0.298277,4.09782e-05,0.0105337,0.283358,5,0.1,7,3.1,-2.70046,2.5131,1.34297,0.00227652,0.20066,0.0345469,-0.00803173,1.54012,-0.122771,0.00867712,3.1694,5,0.1,8,3.1,-2.8477,3.90112,1.30715,-0.00349917,0.00872537,0.0648391,0.00588596,0.0656843,-0.10851,0.0193887,0.782753,5,0.1,9,3.1,0.767578,-2.18406,0.826126,-0.208884,0.230091,0.264883,-0.872865,0.285149,-0.204291,0.0131234,3.14145,5,0.1,10,3.1,-2.09801,-5.82293,0.597894,-0.00216924,-0.0647396,0.00502821,-0.230595,0.146866,-0.0113919,0.0101057,1.30837,5,0.1,11,3.1,-1.99566,-2.39419,0.590041,-0.0495123,-0.337144,-0.105427,0.394039,0.112355,-0.0241473,0.010771,0.562534,5,0.1,12,3.1,3.7102,-5.18631,0.602882,0.0744488,0.782263,-0.00371514,-0.0422746,0.907958,0.00556931,0.00930509,2.39554,5,0.1,13,3.1,-3.54297,3.90206,1.32027,0.285586,-0.00631176,0.0522215,0.178382,-0.215754,-0.112012,0.0109576,0.676245,5,0.1,14,3.1,0.449096,0.0997862,1.24111,0.000311667,0.00145447,0.0373656,-0.000106171,-0.00635721,-0.0134781,0.0211041,3.99643,5,0.1,15,3.1,-1.24995,2.1481,0.652125,0.863049,0.14559,0.0107118,-0.0875443,-0.0589788,0.0195168,0.00984484,2.31768,5,0.1,16,3.1,0.764577,-4.0318,0.59994,0.0930124,0.239717,0.0202641,-0.49847,-0.818104,0.132948,0.010647,0.623695,5,0.1,17,3.1,0.970082,-2.41381,0.5,-0.0579121,0.0854753,1.95578e-06,-0.105664,-0.343829,-1.86265e-05,0.0142484,0.285816,5,0.1,18,3.1,1.07707,-0.479024,0.594068,-0.422211,0.0259469,0.00807354,-0.222445,-0.175636,-0.0112094,0.0144952,0.828692,5,0.1,19,3.1,1.33393,-2.40859,0.654845,-0.300235,-0.0113677,0.0865164,0.0539199,0.0347048,-0.225816,0.0160775,0.19011,5,0.1,20,3.1,1.19517,2.27515,0.588175,-0.847287,0.683572,0.00547245,0.013493,0.588238,-0.00178814,0.0194967,2.02961,5,0.1,21,3.1,-3.42065,-4.67415,0.599399,0.455384,0.849409,0.000296906,-0.102386,-0.330597,-0.000104308,0.0259038,2.29517,5,0.1,22,3.1,-0.386899,0.594645,0.5,0.0583514,-0.239488,2.79397e-06,0.110026,-0.795376,0,0.0183061,0.221076,5,0.1,23,3.1,-3.4283,-1.65359,1.09292,0.0819094,0.85948,0.163276,-0.00879169,0.144415,-0.0163317,0.0230164,2.26063,5,0.1,24,3.1,-1.65137,0.138418,1.41416,0.00222586,0.17458,0.0588764,-0.00955164,0.126804,-0.225738,0.011013,3.41759,5,0.1,25,3.1,-3.89775,1.50111,1.30682,-0.00343733,0.00837073,0.0653641,0.00570714,0.0697672,-0.109382,0.0222166,0.782968,5,0.1,26,3.1,3.91449,1.78515,0.590049,-0.864872,0.141238,0.00854162,-0.0461638,-0.121891,-0.0073649,0.0132116,2.02618,5,0.1,27,3.1,-2.94452,-3.56825,1.08908,0.866026,-0.0224996,0.18499,0,0.00376999,-0.0310615,0.0147556,1.8562,5,0.1,28,3.1,-3.82809,-0.379865,0.636231,-0.159582,0.355041,0.279682,-0.438213,-0.28477,0.095848,0.00952814,0.339929,5,0.1,29,3.1,0.771877,-1.99271,0.519826,0.0516429,0.209907,-0.0781593,-0.58325,-0.298068,0.156242,0.0122621,0.854778,5,0.1
0,3.2,-1.94346,-2.56333,0.959682,0.436464,0.00686646,0.208858,-1.17075,-0.480056,0.299573,0.0125361,0.640051,5,0.1,1,3.2,4.50902,0.542959,0.631123,-0.262797,-0.399829,-0.0322044,0.148773,0.393331,0.0298619,0.01102,0.150735,5,0.1,2,3.2,-0.416701,2.30073,0.581835,-0.337152,-0.208151,-0.0114456,-0.267833,0.184298,0.00885129,0.00939604,0.233532,5,0.1,3,3.2,-3.85041,-2.00162,0.596935,0.168002,-0.00568628,0.00512302,-0.233889,0.0625849,-0.00712276,0.0144529,1.18889,5,0.1,4,3.2,0.935637,-3.77164,0.500617,-0.229143,-0.0691712,0.00818074,0.373721,0.334382,0.0614226,0.0129608,0.216154,5,0.1,5,3.2,0.225631,1.0841,0.636236,0.29682,0.866026,0.0231475,-0.683293,0,-0.0205338,0.00873723,1.87309,5,0.1,6,3.2,-0.342162,3.80208,0.5,0.22403,-0.0245512,1.49012e-06,-0.12973,0.201225,0,0.0105777,0.262329,5,0.1,7,3.2,-2.70027,2.54111,1.34586,0.00156164,0.359648,0.0236034,-0.0064373,1.55377,-0.0964403,0.00965049,2.68916,5,0.1,8,3.2,-2.84802,3.9021,1.31311,-0.00293851,0.00828505,0.0545591,0.00524521,-0.084281,-0.0979304,0.0231369,1.30246,5,0.1,9,3.2,0.741843,-2.15946,0.851295,-0.308619,0.2626,0.235876,-1.0435,0.330091,-0.361651,0.0136254,2.72308,5,0.1,10,3.2,-2.1,-5.82871,0.598343,-0.0437498,-0.051105,0.00397116,-0.583291,0.126123,-0.00983477,0.00930327,1.13734,5,0.1,11,3.2,-1.99893,-2.42753,0.579583,-0.0186503,-0.330883,-0.101858,0.228405,0.0404119,0.0876486,0.00934412,0.475726,5,0.1,12,3.2,3.71745,-5.10441,0.602536,0.0707626,0.846875,-0.00322461,-0.0354052,0.3829,0.00438094,0.0093439,2.28408,5,0.1,13,3.2,-3.51362,3.9,1.32496,0.299805,-0.0381112,0.0419199,0.0911951,-0.406384,-0.0947714,0.0122535,1.27418,5,0.1,14,3.2,0.449127,0.0999015,1.24478,0.000301003,0.000870787,0.0360548,-0.000104308,-0.00521168,-0.0144839,0.0190407,3.99785,5,0.1,15,3.2,-1.16442,2.1623,0.653309,0.843617,0.137693,0.013037,-0.322104,-0.100017,0.0246167,0.0137257,2.71406,5,0.1,16,3.2,0.771125,-4.01236,0.602681,0.0361741,0.145793,0.0347838,-0.605851,-1.01089,0.14776,0.00708809,0.3834,5,0.1,17,3.2,0.963821,-2.4069,0.500001,-0.066632,0.053817,0,-0.0654757,-0.285268,0,0.0169948,0.28238,5,0.1,18,3.2,1.03363,-0.47745,0.59482,-0.446799,0.00450611,0.00698566,-0.229955,-0.237972,-0.0106096,0.0106417,2.46056,5,0.1,19,3.2,1.30422,-2.40955,0.662334,-0.293225,-0.00795722,0.063093,0.0978708,0.0331402,-0.236422,0.015851,0.143593,5,0.1,20,3.2,1.11065,2.3461,0.588713,-0.840923,0.730914,0.00530481,0.150084,0.324011,-0.00187755,0.0191333,1.973,5,0.1,21,3.2,-3.37582,-4.5914,0.599429,0.439036,0.80055,0.000289083,-0.231624,-0.641823,-8.9407e-05,0.028838,2.64927,5,0.1,22,3.2,-0.380574,0.567104,0.500001,0.0674739,-0.307053,1.49012e-06,0.0692606,-0.539631,-2.98023e-05,0.0162412,0.144775,5,0.1,23,3.2,-3.42017,-1.56719,1.10915,0.0805736,0.866026,0.160736,-0.0212193,0,-0.0409484,0.0209269,1.94511,5,0.1,24,3.2,-1.65119,0.156533,1.41903,0.00139773,0.188824,0.0395805,-0.00709295,0.19031,-0.16284,0.0102553,3.35053,5,0.1,25,3.2,-3.89806,1.50207,1.31282,-0.00289083,0.00825226,0.0550002,0.005126,-0.081718,-0.0987053,0.0240902,1.65357,5,0.1,26,3.2,3.82791,1.79868,0.590867,-0.866026,0.129464,0.00782907,0,-0.118017,-0.00712276,0.0129073,1.58102,5,0.1,27,3.2,-2.85791,-3.57047,1.10739,0.866026,-0.0219703,0.18062,0,0.00762939,-0.0626445,0.0179663,1.78811,5,0.1,28,3.2,-3.84611,-0.345787,0.66453,-0.199097,0.326264,0.2846,-0.335932,-0.29932,-0.00599027,0.00911947,0.245794,5,0.1,29,3.2,0.774872,-1.97389,0.512848,0.0148654,0.160742,-0.0609741,-0.185788,-0.637114,0.181824,0.0148851,0.509764,5,0.1
0,3.3,-1.90484,-2.56406,0.981478,0.343423,-0.012951,0.221672,-0.724182,0.0362545,-0.023663,0.0125361,0.640051,5,0.1,1,3.3,4.48328,0.50465,0.628031,-0.253437,-0.368721,-0.0298104,0.0571311,0.25152,0.0197403,0.01102,0.150735,5,0.1,2,3.3,-0.451224,2.2808,0.580688,-0.348299,-0.19071,-0.0118916,0.033021,0.169605,-0.0146143,0.00939604,0.233532,5,0.1,3,3.3,-3.8345,-2.00186,0.597491,0.152446,0.00319295,0.00666296,-0.0941753,0.193521,0.0329353,0.0144529,1.18889,5,0.1,4,3.3,0.91423,-3.77722,0.501864,-0.20208,-0.0454083,0.0177242,0.188071,0.154525,0.119567,0.0129608,0.216154,5,0.1,5,3.3,0.251877,1.17071,0.638391,0.2282,0.865995,0.01947,-0.678045,-0.0012368,-0.0497252,0.00873723,1.87309,5,0.1,6,3.3,-0.320442,3.80052,0.5,0.209945,-0.00763275,1.39698e-06,-0.154784,0.135019,-3.72529e-06,0.0105777,0.262329,5,0.1,7,3.3,-2.70014,2.58527,1.34777,0.000995398,0.525536,0.015121,-0.00491738,1.67537,-0.0736713,0.00965049,2.68916,5,0.1,8,3.3,-2.84829,3.90241,1.31811,-0.00245981,-0.00518635,0.0456255,0.00439584,-0.257522,-0.0817925,0.0231369,1.30246,5,0.1,9,3.3,0.705225,-2.13106,0.872829,-0.427129,0.309121,0.192789,-1.24857,0.548556,-0.483017,0.0136254,2.72308,5,0.1,10,3.3,-2.10805,-5.83323,0.598694,-0.123243,-0.0396438,0.00307802,-0.938922,0.103742,-0.00808388,0.00930327,1.13734,5,0.1,11,3.3,-1.99984,-2.46068,0.56996,-0.00120737,-0.333874,-0.089521,0.122711,-0.0719577,0.152633,0.00934412,0.475726,5,0.1,12,3.3,3.7244,-5.01855,0.602232,0.0686828,0.864826,-0.00288142,-0.0112802,0.0479221,0.00268593,0.0093439,2.28408,5,0.1,13,3.3,-3.48285,3.89341,1.32872,0.318241,-0.0995085,0.033425,0.24122,-0.760734,-0.0760332,0.0122535,1.27418,5,0.1,14,3.3,0.449157,0.0999651,1.24833,0.000294112,0.000427745,0.0350818,-5.21541e-05,-0.00362424,-0.00709295,0.0190407,3.99785,5,0.1,15,3.3,-1.0825,2.17565,0.65489,0.787159,0.129775,0.0198461,-0.778414,-0.0655502,0.10056,0.0137257,2.71406,5,0.1,16,3.3,0.771633,-4.00303,0.607022,-0.0262604,0.0398695,0.0529304,-0.62054,-1.07008,0.201337,0.00708809,0.3834,5,0.1,17,3.3,0.95687,-2.40282,0.500001,-0.0719481,0.0290316,-4.65661e-07,-0.038486,-0.208631,-1.11759e-05,0.0169948,0.28238,5,0.1,18,3.3,0.986919,-0.478066,0.595469,-0.494139,-0.0156214,0.00600675,-0.636451,-0.166154,-0.00910088,0.0106417,2.46056,5,0.1,19,3.3,1.27544,-2.41019,0.667471,-0.281859,-0.00487342,0.0398508,0.135429,0.0283122,-0.224289,0.015851,0.143593,5,0.1,20,3.3,1.02695,2.42097,0.589238,-0.835122,0.766888,0.00520749,0.0170618,0.346243,-0.000435859,0.0191333,1.973,5,0.1,21,3.3,-3.33355,-4.51545,0.599457,0.402053,0.710873,0.000286754,-0.488371,-1.09267,1.86265e-05,0.028838,2.64927,5,0.1,22,3.3,-0.373791,0.533929,0.500001,0.0654736,-0.35377,-9.31323e-07,-0.0944193,-0.380261,-1.49012e-05,0.0162412,0.144775,5,0.1,23,3.3,-3.4122,-1.48059,1.12506,0.0790179,0.866026,0.157776,-0.0138581,0,-0.0262484,0.0209269,1.94511,5,0.1,24,3.3,-1.65108,0.176455,1.42227,0.000796467,0.210301,0.0261657,-0.00500679,0.230996,-0.108257,0.0102553,3.35053,5,0.1,25,3.3,-3.89833,1.50241,1.31786,-0.00264086,-0.00460763,0.0459958,0.000432134,-0.258304,-0.0824481,0.0240902,1.65357,5,0.1,26,3.3,3.74131,1.81109,0.591618,-0.86594,0.119137,0.00720508,0.00344217,-0.0934601,-0.00565499,0.0129073,1.58102,5,0.1,27,3.3,-2.77131,-3.57264,1.12517,0.866026,-0.0213053,0.175156,0,0.00657141,-0.0540093,0.0179663,1.78811,5,0.1,28,3.3,-3.86768,-0.314559,0.692948,-0.231886,0.299036,0.283367,-0.302374,-0.255384,-0.0290871,0.00911947,0.245794,5,0.1,29,3.3,0.775517,-1.96154,0.507634,-0.00109803,0.0823092,-0.0435996,-0.133939,-0.885084,0.163745,0.0148851,0.509764,5,0.1
